Rotation, Location, Gyro Rotation, Sensor Optical Flow, Battery Level, Yaw, Pitch, Roll, Vy, Vx, AccX, AccY
0, (0.112,0), 360, 100.0, 359.99999767255605, 0, 0, 0, 0.034, 1.7, 0, 0
0, (0.118,0), 360, 100.0, 359.99998022491917, 0, 0, 0, 0, 0, 0, 0
0, (0.118,0), 360, 100.0, 359.9999653894896, 0, 0, 0, 0, 0, 0, 0
0, (0.118,0), 359.9999, 100.0, 359.9999485389825, 0, 0, 0, 0, 0, 0, 0
0, (0.118,0), 359.9999, 100.0, 359.99993271794835, 0, 0, 0, 0, 0, 0, 0
0, (0.118,0), 359.9999, 100.0, 359.9999152119374, 0, 0, 0, 0, 0, 0, 0
0, (0.118,0), 359.9999, 100.0, 359.99990424746323, 0, 0, 0, 0, 0, 0, 0
0, (0.118,0), 359.9999, 100.0, 359.9998874331172, 0, 0, 0, 0, 0, 0, 0
0, (0.118,0), 359.9999, 100.0, 359.9998734478326, 0, 0, 0, 0, 0, 0, 0
0, (0.118,0), 359.9999, 100.0, 359.9998597642379, 0, 0, 0, 0, 0, 0, 0
0, (0.118,0), 359.9998, 100.0, 359.9998479142498, 0, 0, 0, 0, 0, 0, 0
0, (0.118,0), 359.9998, 100.0, 359.99983670794234, 0, 0, 0, 0, 0, 0, 0
0, (0.118,0), 359.9998, 100.0, 359.9998171636072, 0, 0, 0, 0, 0, 0, 0
0, (0.118,0), 359.9998, 100.0, 359.9997978196141, 0, 0, 0, 0, 0, 0, 0
359.16, (0.13,-0), 358.5598, 100.0, 358.55978185034326, 0.3, 0.3, -0.0004, 0.024, 1.1999, -0.0176, -0.0176
350.52, (0.532,-0.052), 349.9198, 100.0, 349.1997722712592, -9.54, -9.54, -0.0329, 0.1831, 9.153, -1.6469, -1.6469
359.52, (1.665,-0.128), 358.9198, 100.0, 358.91975217201883, -0.48, -0.48, -0.0031, 0.366, 18.2994, -0.1533, -0.1533
349.14, (3.286,-0.305), 348.5397, 100.0, 349.1997373921111, -9.18, -9.18, -0.0885, 0.4921, 24.6049, -4.4271, -4.4271
339.9, (5.205,-0.857), 339.2997, 100.0, 338.9997176306862, -19.92, -19.92, -0.1743, 0.4686, 23.432, -8.7143, -8.7143
350.16, (6.941,-1.324), 349.5597, 100.0, 348.83969982294354, -11.58, -11.58, -0.0916, 0.4915, 24.5766, -4.5816, -4.5816
359.34, (8.932,-1.49), 358.7397, 100.0, 359.09968578036677, -1.08, -1.08, -0.0026, 0.5, 24.9997, -0.1309, -0.1309
349.2, (10.721,-1.666), 348.5997, 100.0, 349.37967727028973, -8.94, -8.94, -0.087, 0.4924, 24.6187, -4.3498, -4.3498
338.82, (12.644,-2.204), 338.2197, 100.0, 338.99965659009507, -19.32, -19.32, -0.1743, 0.4686, 23.432, -8.7143, -8.7143
329.04, (14.442,-3.075), 328.4396, 100.0, 328.79963354401366, -29.46, -29.46, -0.2545, 0.4304, 21.5186, -12.726, -12.726
338.76, (16.049,-3.88), 338.1596, 100.0, 337.1396232286491, -23.34, -23.34, -0.1894, 0.4627, 23.1369, -9.4703, -9.4703
348.9, (17.964,-4.448), 348.2996, 100.0, 347.6396020348132, -12.84, -12.84, -0.1019, 0.4895, 24.4752, -5.0953, -5.0953
339.78, (19.891,-4.972), 339.1796, 100.0, 339.53958672066994, -19.02, -19.02, -0.1699, 0.4703, 23.5131, -8.4931, -8.4931
329.7, (21.509,-5.756), 329.0996, 100.0, 329.09956866876865, -29.28, -29.28, -0.2523, 0.4317, 21.5849, -12.6132, -12.6132
338.1, (23.113,-6.568), 337.4996, 100.0, 336.83955212779256, -23.7, -23.7, -0.1918, 0.4617, 23.087, -9.5913, -9.5913
347.94, (25.024,-7.147), 347.3395, 100.0, 347.3395324165743, -13.14, -13.14, -0.1045, 0.489, 24.4482, -5.2234, -5.2234
349.92, (26.804,-7.412), 349.3195, 100.0, 350.39951467394826, -7.86, -7.86, -0.0782, 0.4938, 24.6922, -3.9109, -3.9109
347.64, (28.748,-7.879), 347.0395, 100.0, 346.1995028138788, -14.34, -14.34, -0.1142, 0.4868, 24.3395, -5.7088, -5.7088
351.78, (30.725,-8.17), 351.1795, 100.0, 351.1794806882509, -7.08, -7.08, -0.0715, 0.4949, 24.7432, -3.5744, -3.5744
346.86, (32.478,-8.572), 346.2595, 100.0, 345.47946308608005, -15.3, -15.3, -0.1203, 0.4853, 24.2658, -6.0142, -6.0142
344.22, (34.432,-8.996), 343.6194, 100.0, 344.0394428503732, -14.34, -14.34, -0.1324, 0.4821, 24.107, -6.6221, -6.6221
333.84, (36.298,-9.708), 333.2394, 100.0, 333.95942792327537, -24.42, -24.42, -0.2148, 0.4515, 22.5759, -10.7391, -10.7391
324.12, (38.008,-10.74), 323.5194, 100.0, 323.5194065665102, -34.86, -34.86, -0.293, 0.4051, 20.2562, -14.6522, -14.6522
325.08, (39.423,-11.852), 324.4794, 100.0, 323.7593936088243, -36.72, -36.72, -0.2913, 0.4063, 20.3174, -14.5673, -14.5673
324.84, (41.108,-12.928), 324.2394, 100.0, 324.5993740456018, -33.72, -33.72, -0.2854, 0.4106, 20.5287, -14.2678, -14.2678
324.3, (42.686,-14.156), 323.6994, 100.0, 323.6993534728543, -36.78, -36.78, -0.2918, 0.406, 20.3021, -14.5885, -14.5885
328.56, (44.21,-15.112), 327.9593, 100.0, 326.8793384275386, -32.16, -32.16, -0.2688, 0.4216, 21.0801, -13.4398, -13.4398
336.72, (45.995,-16.01), 336.1193, 100.0, 336.47932012667513, -22.92, -22.92, -0.1947, 0.4605, 23.0262, -9.7361, -9.7361
332.82, (47.77,-16.928), 332.2193, 100.0, 331.8593018022408, -28.56, -28.56, -0.2312, 0.4433, 22.1672, -11.5592, -11.5592
342.12, (49.433,-17.613), 341.5193, 100.0, 340.49928886858055, -19.98, -19.98, -0.162, 0.473, 23.6521, -8.0979, -8.0979
348.24, (51.376,-18.077), 347.6393, 100.0, 348.2992677665404, -10.02, -10.02, -0.0963, 0.4906, 24.5323, -4.813, -4.813
340.8, (53.289,-18.652), 340.1992, 100.0, 339.7792498423293, -20.4, -20.4, -0.1679, 0.471, 23.5485, -8.3945, -8.3945
351, (55.033,-19.091), 350.3992, 100.0, 349.61923491252, -10.8, -10.8, -0.0849, 0.4927, 24.6367, -4.2466, -4.2466
0.78, (56.825,-19.222), 0.1792, 100.0, 359.8192238547364, -0.72, -0.72, 0.0037, 0.5, 24.9993, 0.1833, 0.1833
0.72, (58.822,-19.113), 0.1192, 100.0, 0.5392072892273515, 1.8, 1.8, 0.0099, 0.4999, 24.9951, 0.4974, 0.4974
0.18, (60.62,-19.171), 359.3408, 100.0, 358.5607827710057, -1.62, -1.62, -0.0052, 0.5, 24.9986, -0.2618, -0.2618
10.5, (62.609,-18.987), 9.6608, 100.0, 9.240767361362282, 9.06, 9.06, 0.0875, 0.4923, 24.6141, 4.3756, 4.3756
19.92, (64.536,-18.462), 19.0808, 100.0, 19.08075411098172, 18.84, 18.84, 0.1704, 0.4701, 23.5042, 8.5177, 8.5177
29.28, (66.174,-17.719), 28.4407, 100.0, 27.72074068645468, 27.54, 27.54, 0.239, 0.4392, 21.9579, 11.952, 11.952
23.04, (67.943,-16.791), 22.2007, 100.0, 22.560718438265834, 24.48, 24.48, 0.1986, 0.4589, 22.9439, 9.9287, 9.9287
12.66, (69.846,-16.184), 11.8207, 100.0, 12.240703087032555, 14.16, 14.16, 0.1132, 0.487, 24.3514, 5.6578, 5.6578
2.76, (71.826,-15.923), 1.9207, 100.0, 1.9206870386861965, 3.84, 3.84, 0.0241, 0.4994, 24.971, 1.2038, 1.2038
0.42, (73.626,-15.948), 0.0607, 100.0, 359.22067406740194, -1.44, -1.44, -0.0037, 0.5, 24.9993, -0.1833, -0.1833
3.78, (75.619,-15.798), 3.4207, 100.0, 3.720654882902592, 5.28, 5.28, 0.0356, 0.4987, 24.9366, 1.7787, 1.7787
2.7, (77.618,-15.765), 2.5806, 100.0, 2.2206415453893946, 1.5, 1.5, 0.0204, 0.4996, 24.9792, 1.0207, 1.0207
12.36, (79.399,-15.52), 12.2406, 100.0, 11.820625442901155, 10.74, 10.74, 0.1034, 0.4892, 24.4591, 5.1722, 5.1722
22.62, (81.307,-14.928), 22.5006, 100.0, 21.78060993474195, 20.88, 20.88, 0.1865, 0.4639, 23.1959, 9.3247, 9.3247
15.48, (83.181,-14.237), 15.3606, 100.0, 15.720598314521418, 16.86, 16.86, 0.1365, 0.481, 24.0507, 6.8238, 6.8238
6.12, (84.945,-13.887), 6.0006, 100.0, 7.080578162434014, 8.22, 8.22, 0.0627, 0.4961, 24.8029, 3.1333, 3.1333
356.52, (86.742,-13.835), 356.6394, 100.0, 357.3594276541452, -1.68, -1.68, -0.0241, 0.4994, 24.971, -1.2038, -1.2038
346.5, (88.718,-14.127), 346.6194, 100.0, 346.9794114774096, -12.12, -12.12, -0.1137, 0.4869, 24.3454, -5.6833, -5.6833
351.96, (90.471,-14.527), 352.0794, 100.0, 350.81939735121756, -10.08, -10.08, -0.0808, 0.4934, 24.6714, -4.0401, -4.0401
346.5, (92.447,-14.828), 346.6194, 100.0, 347.63938171169565, -11.46, -11.46, -0.108, 0.4882, 24.4093, -5.4025, -5.4025
348.78, (94.381,-15.336), 348.8994, 100.0, 348.59936198628156, -12.78, -12.78, -0.0999, 0.4899, 24.4964, -4.9927, -4.9927
358.92, (96.367,-15.541), 359.0393, 100.0, 359.03934553216095, -2.16, -2.16, -0.0094, 0.4999, 24.9956, -0.4712, -0.4712
357.36, (98.167,-15.518), 357.2407, 100.0, 358.3206639943714, -0.42, -0.42, -0.0136, 0.4998, 24.9907, -0.6806, -0.6806
1.14, (100.163,-15.618), 1.0206, 100.0, 0.600646243833614, -0.3, -0.3, 0.0063, 0.5, 24.998, 0.3142, 0.3142
1.14, (101.961,-15.549), 1.1394, 100.0, 6.333735129125004E-4, 0.06, 0.06, 0, 0.5, 25, 0, 0
9.96, (103.948,-15.344), 9.9593, 100.0, 10.379348975267733, 9.66, 9.66, 0.0901, 0.4918, 24.5909, 4.5044, 4.5044
360.18, (105.939,-15.185), 0.1807, 100.0, 0.1806674299181168, 0.84, 0.84, 0.0016, 0.5, 24.9999, 0.0785, 0.0785
9.96, (107.73,-15.026), 9.9607, 100.0, 9.240656478089754, 8.16, 8.16, 0.0803, 0.4935, 24.6756, 4.0143, 4.0143
16.26, (109.663,-14.522), 16.2606, 100.0, 16.980637672419217, 17.94, 17.94, 0.146, 0.4782, 23.9102, 7.3009, 7.3009
8.04, (111.424,-14.158), 8.0406, 100.0, 8.040626579062215, 8.4, 8.4, 0.0699, 0.4951, 24.7543, 3.4966, 3.4966
5.28, (113.218,-14.023), 5.2806, 100.0, 4.320607607820899, 3.24, 3.24, 0.0377, 0.4986, 24.929, 1.8832, 1.8832
9.24, (115.191,-13.703), 9.2406, 100.0, 9.660591308267785, 10.68, 10.68, 0.0839, 0.4929, 24.6455, 4.195, 4.195
359.04, (117.183,-13.562), 359.0394, 100.0, 359.39942654399704, 0.3, 0.3, -0.0052, 0.5, 24.9986, -0.2618, -0.2618
6.42, (119.18,-13.496), 6.4194, 100.0, 6.419407776358864, 5.4, 5.4, 0.0559, 0.4969, 24.8432, 2.7954, 2.7954
7.08, (120.955,-13.2), 7.0794, 100.0, 7.859394184180638, 8.64, 8.64, 0.0684, 0.4953, 24.7651, 3.4188, 3.4188
6.54, (122.948,-13.051), 6.5394, 100.0, 6.179375145964365, 5.16, 5.16, 0.0538, 0.4971, 24.8547, 2.6913, 2.6913
7.44, (124.92,-12.718), 7.4394, 100.0, 7.799361451618614, 8.88, 8.88, 0.0679, 0.4954, 24.7687, 3.3929, 3.3929
3.24, (126.715,-12.603), 3.2393, 100.0, 3.5993436942908565, 2.52, 2.52, 0.0314, 0.499, 24.9507, 1.5698, 1.5698
353.7, (128.713,-12.642), 353.6993, 100.0, 354.65933642347943, -4.68, -4.68, -0.0465, 0.4978, 24.8915, -2.3266, -2.3266
2.34, (130.708,-12.735), 2.3393, 100.0, 1.9793216303548546, 0.9, 0.9, 0.0173, 0.4997, 24.9851, 0.8638, 0.8638
355.02, (132.506,-12.745), 355.0207, 100.0, 355.6806773093939, -3.24, -3.24, -0.0377, 0.4986, 24.929, -1.8832, -1.8832
3.54, (134.503,-12.79), 3.5407, 100.0, 3.5406607803744556, 2.4, 2.4, 0.0309, 0.499, 24.9523, 1.5436, 1.5436
357.6, (136.302,-12.758), 356.1593, 100.0, 356.5193413297264, -0.84, -0.84, -0.0178, 0.4997, 24.9842, -0.8899, -0.8899
3.6, (138.299,-12.791), 2.1593, 100.0, 1.7993235752735377, 2.46, 2.46, 0.0283, 0.4992, 24.96, 1.413, 1.413
11.16, (140.085,-12.576), 9.7193, 100.0, 8.999310525707786, 9.24, 9.24, 0.0906, 0.4917, 24.5861, 4.5301, 4.5301
19.2, (142.016,-12.059), 17.7593, 100.0, 17.45929430719612, 17.7, 17.7, 0.162, 0.473, 23.6521, 8.0979, 8.0979
28.98, (143.657,-11.324), 27.5393, 100.0, 26.759278915857653, 27.12, 27.12, 0.2363, 0.4407, 22.0326, 11.8138, 11.8138
38.7, (145.316,-10.211), 37.2593, 100.0, 36.89926231181758, 37.14, 37.14, 0.3102, 0.3922, 19.6086, 15.5082, 15.5082
48.78, (146.755,-8.826), 47.3392, 100.0, 46.979249414557394, 47.34, 47.34, 0.374, 0.3318, 16.5916, 18.7007, 18.7007
58.86, (147.819,-7.377), 57.4192, 100.0, 56.63923187195535, 56.7, 56.7, 0.4244, 0.2644, 13.2184, 21.2197, 21.2197
53.16, (148.884,-5.686), 51.7192, 100.0, 52.49921300800738, 54.66, 54.66, 0.4042, 0.2943, 14.7158, 20.21, 20.21
43.14, (150.077,-4.341), 41.6992, 100.0, 42.119199433497556, 44.34, 44.34, 0.3446, 0.3623, 18.1163, 17.2278, 17.2278
33.42, (151.488,-3.226), 31.9792, 100.0, 32.99917782473462, 35.4, 35.4, 0.2828, 0.4124, 20.618, 14.1386, 14.1386
27.72, (153.236,-2.259), 26.2792, 100.0, 25.859157530934976, 26.22, 26.22, 0.2293, 0.4443, 22.2154, 11.4662, 11.4662
33.96, (154.753,-1.294), 32.5191, 100.0, 33.65914024010614, 35.82, 35.82, 0.2875, 0.4091, 20.4537, 14.3751, 14.3751
39.18, (156.398,-0.158), 37.7391, 100.0, 37.079125193605776, 37.44, 37.44, 0.3114, 0.3912, 19.5598, 15.5697, 15.5697
41.28, (157.932,1.125), 39.8391, 100.0, 39.47910598595673, 39.84, 39.84, 0.3275, 0.3778, 18.8906, 16.3751, 16.3751
34.44, (159.487,2.379), 32.9991, 100.0, 32.99909075379924, 35.64, 35.64, 0.2828, 0.4124, 20.618, 14.1386, 14.1386
24.84, (161.046,3.275), 23.3991, 100.0, 24.47907957104778, 26.94, 26.94, 0.2186, 0.4497, 22.4851, 10.9279, 10.9279
15.3, (162.921,3.964), 13.8591, 100.0, 14.27906245392299, 16.86, 16.86, 0.1355, 0.4813, 24.0649, 6.7734, 6.7734
5.22, (164.887,4.313), 3.779, 100.0, 3.7790432537066607, 6.3, 6.3, 0.0455, 0.4979, 24.8963, 2.2745, 2.2745
7.2, (166.681,4.453), 5.759, 100.0, 6.239030218840607, 6.6, 6.6, 0.0668, 0.4955, 24.7757, 3.341, 3.341
357.9, (168.676,4.544), 356.461, 100.0, 356.8809734942622, -0.96, -0.96, -0.0147, 0.4998, 24.9893, -0.7329, -0.7329
8.22, (170.671,4.646), 6.781, 100.0, 6.000954024666752, 6.66, 6.66, 0.0647, 0.4958, 24.7895, 3.2372, 3.2372
6.66, (172.442,4.964), 5.2209, 100.0, 6.300944014633305, 8.82, 8.82, 0.0673, 0.4954, 24.7722, 3.3669, 3.3669
12.78, (174.422,5.236), 11.3409, 100.0, 10.320920806832715, 10.74, 10.74, 0.1019, 0.4895, 24.4752, 5.0953, 5.0953
7.44, (176.377,5.651), 6.0009, 100.0, 6.720900198876866, 8.88, 8.88, 0.071, 0.4949, 24.7469, 3.5484, 3.5484
6.66, (178.171,5.796), 5.2209, 100.0, 4.50088491644582, 4.8, 4.8, 0.0517, 0.4973, 24.8658, 2.5872, 2.5872
12.42, (180.132,6.176), 10.9809, 100.0, 11.340869222458807, 13.86, 13.86, 0.1106, 0.4876, 24.3807, 5.5302, 5.5302
6.42, (182.113,6.443), 4.9808, 100.0, 4.620848365891583, 5.04, 5.04, 0.0528, 0.4972, 24.8603, 2.6392, 2.6392
16.38, (183.876,6.793), 14.9408, 100.0, 13.80083346808613, 14.52, 14.52, 0.1314, 0.4824, 24.1208, 6.5716, 6.5716
20.58, (185.754,7.479), 19.1408, 100.0, 19.860822811752563, 22.38, 22.38, 0.1816, 0.4658, 23.2923, 9.0813, 9.0813
10.8, (187.68,8.006), 9.3608, 100.0, 9.36080229323329, 11.52, 11.52, 0.0937, 0.4911, 24.5572, 4.6845, 4.6845
1.56, (189.271,8.156), 0.5992, 100.0, 0.23920740236320626, 2.16, 2.16, 0.0105, 0.4999, 24.9945, 0.5236, 0.5236
1.38, (191.265,8.291), 0.4192, 100.0, 0.7791915290929746, 2.46, 2.46, 0.0152, 0.4998, 24.9885, 0.7591, 0.7591
352.92, (193.062,8.205), 351.6008, 100.0, 352.62079728662275, -5.22, -5.22, -0.0528, 0.4972, 24.8603, -2.6392, -2.6392
343.68, (195.019,7.805), 342.3608, 100.0, 343.08077934286894, -14.76, -14.76, -0.1345, 0.4816, 24.0791, -6.723, -6.723
333.6, (196.876,7.07), 332.2808, 100.0, 332.28076043944446, -25.32, -25.32, -0.2223, 0.4479, 22.3928, -11.1159, -11.1159
330.36, (198.427,6.157), 329.0407, 100.0, 328.2607415425169, -31.44, -31.44, -0.2532, 0.4312, 21.5584, -12.6584, -12.6584
340.44, (200.244,5.329), 339.1207, 100.0, 338.76072712200505, -21, -21, -0.1704, 0.4701, 23.5042, -8.5177, -8.5177
343.98, (201.98,4.854), 342.6607, 100.0, 343.86071277398224, -14.1, -14.1, -0.1279, 0.4834, 24.1684, -6.3946, -6.3946
334.08, (203.848,4.147), 332.7607, 100.0, 333.4806912248969, -24.42, -24.42, -0.2129, 0.4524, 22.6207, -10.6445, -10.6445
335.52, (205.616,3.215), 334.2007, 100.0, 333.8406743181983, -25.98, -25.98, -0.21, 0.4537, 22.6871, -10.5021, -10.5021
341.7, (207.481,2.494), 340.3807, 100.0, 340.02065015743125, -19.68, -19.68, -0.16, 0.4737, 23.6858, -7.9988, -7.9988
348, (209.421,2.011), 346.6806, 100.0, 346.2606280710377, -13.14, -13.14, -0.1075, 0.4883, 24.4149, -5.3769, -5.3769
358.2, (211.405,1.787), 356.8806, 100.0, 356.88061207250445, -2.82, -2.82, -0.0157, 0.4998, 24.9877, -0.7853, -0.7853
6.36, (213.201,1.89), 5.0406, 100.0, 5.760594801396749, 6.36, 6.36, 0.0616, 0.4962, 24.8094, 3.0814, 3.0814
356.22, (215.197,1.939), 355.2594, 100.0, 355.6794071045931, -2.28, -2.28, -0.0293, 0.4991, 24.957, -1.4652, -1.4652
346.5, (217.172,1.636), 345.5394, 100.0, 345.83939217540586, -12.12, -12.12, -0.1142, 0.4868, 24.3395, -5.7088, -5.7088
336.42, (219.062,0.991), 335.4594, 100.0, 335.45936972673775, -22.5, -22.5, -0.2, 0.4583, 22.9126, -10.0007, -10.0007
334.44, (220.663,0.169), 333.4794, 100.0, 332.8193543028913, -27.3, -27.3, -0.2209, 0.4486, 22.4276, -11.0455, -11.0455
336.84, (222.515,-0.582), 335.8793, 100.0, 336.65933780934347, -21.24, -21.24, -0.1904, 0.4623, 23.117, -9.5187, -9.5187
344.82, (224.388,-1.277), 343.8593, 100.0, 343.0793176436835, -16.74, -16.74, -0.1375, 0.4807, 24.0363, -6.8742, -6.8742
352.08, (226.34,-1.705), 351.1193, 100.0, 350.6993073272785, -9.42, -9.42, -0.0725, 0.4947, 24.7356, -3.6262, -3.6262
355.38, (228.334,-1.847), 354.4193, 100.0, 354.4192869703917, -3.54, -3.54, -0.0403, 0.4984, 24.9188, -2.0137, -2.0137
349.08, (230.108,-2.144), 348.1193, 100.0, 347.75928006904184, -12.36, -12.36, -0.0978, 0.4903, 24.5171, -4.8901, -4.8901
358.62, (232.096,-2.341), 357.6593, 100.0, 357.2992636487072, -2.1, -2.1, -0.0152, 0.4998, 24.9885, -0.7591, -0.7591
7.8, (233.89,-2.23), 6.8392, 100.0, 6.779247514248558, 6.72, 6.72, 0.0673, 0.4954, 24.7722, 3.3669, 3.3669
1.74, (235.884,-2.108), 0.6608, 100.0, 359.9407607436116, -0.3, -0.3, 0.0089, 0.4999, 24.996, 0.445, 0.445
8.34, (237.87,-1.889), 7.2607, 100.0, 7.680741072941359, 9.9, 9.9, 0.0761, 0.4942, 24.7084, 3.8074, 3.8074
358.5, (239.865,-1.779), 357.2993, 100.0, 357.29926349224644, -0.3, -0.3, -0.0131, 0.4998, 24.9914, -0.6544, -0.6544
7.26, (241.661,-1.707), 6.0593, 100.0, 5.33925114900482, 5.4, 5.4, 0.0569, 0.4967, 24.8373, 2.8474, 2.8474
17.16, (243.613,-1.284), 15.9592, 100.0, 15.59923472305707, 16.02, 16.02, 0.1445, 0.4787, 23.933, 7.2258, 7.2258
26.76, (245.461,-0.526), 25.5592, 100.0, 25.559218981669474, 26.04, 26.04, 0.2251, 0.4465, 22.3225, 11.2564, 11.2564
26.04, (247.03,0.354), 24.8392, 100.0, 25.85919795264396, 28.08, 28.08, 0.2275, 0.4453, 22.2633, 11.3731, 11.3731
16.44, (248.886,1.094), 15.2392, 100.0, 16.37918260704172, 18.36, 18.36, 0.151, 0.4766, 23.8324, 7.5509, 7.5509
6.72, (250.841,1.504), 5.5192, 100.0, 5.879160100798932, 8.52, 8.52, 0.0616, 0.4962, 24.8094, 3.0814, 3.0814
5.1, (252.837,1.621), 4.5008, 100.0, 4.08084054172745, 3.66, 3.66, 0.0408, 0.4983, 24.9166, 2.0398, 2.0398
15, (254.802,1.98), 14.4008, 100.0, 14.40081904288501, 13.98, 13.98, 0.1294, 0.483, 24.1481, 6.4705, 6.4705
16.98, (256.506,2.558), 16.3808, 100.0, 17.16080681117227, 18.9, 18.9, 0.1525, 0.4762, 23.8086, 7.6258, 7.6258
6.9, (258.458,2.981), 6.3008, 100.0, 7.0807944171215205, 8.46, 8.46, 0.0668, 0.4955, 24.7757, 3.341, 3.341
358.44, (260.454,3.06), 357.5992, 100.0, 357.5992117364748, -0.54, -0.54, -0.0136, 0.4998, 24.9907, -0.6806, -0.6806
353.94, (262.243,2.869), 353.0992, 100.0, 351.9591970357902, -8.28, -8.28, -0.0627, 0.4961, 24.8029, -3.1333, -3.1333
1.62, (264.24,2.812), 1.1408, 100.0, 0.8408148968810506, 0.66, 0.66, 0.0115, 0.4999, 24.9934, 0.5759, 0.5759
354.24, (266.238,2.784), 353.9992, 100.0, 354.6591819216578, -4.32, -4.32, -0.0444, 0.498, 24.901, -2.2224, -2.2224
344.94, (268.206,2.437), 344.6992, 100.0, 346.07916770708283, -13.32, -13.32, -0.1182, 0.4858, 24.2908, -5.9125, -5.9125
350.22, (269.948,1.99), 349.9792, 100.0, 348.8991528744606, -11.88, -11.88, -0.0942, 0.491, 24.5523, -4.7102, -4.7102
340.74, (271.887,1.509), 340.4991, 100.0, 341.27913724252176, -17.34, -17.34, -0.1585, 0.4742, 23.7109, -7.9243, -7.9243
349.98, (273.813,0.981), 349.7391, 100.0, 349.0791164046074, -11.7, -11.7, -0.0927, 0.4913, 24.5669, -4.6331, -4.6331
348.72, (275.792,0.695), 348.4791, 100.0, 348.83910004765283, -9.84, -9.84, -0.0947, 0.4909, 24.5473, -4.736, -4.736
354.48, (277.562,0.378), 354.2391, 100.0, 353.51908446835427, -7.38, -7.38, -0.0543, 0.497, 24.8519, -2.7173, -2.7173
349.62, (279.549,0.167), 349.3791, 100.0, 349.73907306215295, -8.94, -8.94, -0.087, 0.4924, 24.6187, -4.3498, -4.3498
347.76, (281.492,-0.307), 347.5191, 100.0, 347.5190576094715, -13.32, -13.32, -0.106, 0.4886, 24.4317, -5.3002, -5.3002
352.26, (283.274,-0.55), 352.019, 100.0, 352.73904308629, -6.24, -6.24, -0.0611, 0.4963, 24.8126, -3.0554, -3.0554
342.9, (285.222,-0.992), 342.659, 100.0, 342.6590253065244, -15.96, -15.96, -0.147, 0.4779, 23.8948, -7.351, -7.351
332.52, (286.887,-1.672), 332.279, 100.0, 333.41900619622277, -25.32, -25.32, -0.2218, 0.4481, 22.4044, -11.0924, -11.0924
323.04, (288.58,-2.732), 322.799, 100.0, 323.1589875990777, -35.52, -35.52, -0.2981, 0.4014, 20.0704, -14.9056, -14.9056
312.54, (290.058,-4.075), 312.299, 100.0, 313.07897370466554, -45.96, -45.96, -0.3638, 0.343, 17.1518, -18.1883, -18.1883
307.08, (291.29,-5.649), 306.839, 100.0, 306.4189565726961, -54.42, -54.42, -0.4011, 0.2985, 14.9266, -20.0548, -20.0548
315.9, (292.492,-6.986), 315.6589, 100.0, 314.8789430603457, -44.88, -44.88, -0.3528, 0.3543, 17.7147, -17.6406, -17.6406
324.3, (294.039,-8.25), 324.0589, 100.0, 324.41893365584195, -35.34, -35.34, -0.2892, 0.4079, 20.3933, -14.4607, -14.4607
321.66, (295.665,-9.414), 321.4189, 100.0, 321.8389131887974, -36.9, -36.9, -0.3073, 0.3944, 19.7217, -15.364, -15.364
320.94, (297.018,-10.6), 320.6989, 100.0, 319.61889964040466, -40.86, -40.86, -0.3223, 0.3822, 19.1118, -16.1164, -16.1164
326.46, (298.649,-11.756), 326.2189, 100.0, 325.13888066551397, -34.68, -34.68, -0.2841, 0.4115, 20.5735, -14.2033, -14.2033
333.9, (300.398,-12.721), 333.6589, 100.0, 334.0188673791672, -25.02, -25.02, -0.2171, 0.4504, 22.5194, -10.8572, -10.8572
333.66, (302.15,-13.684), 333.4188, 100.0, 333.05884753678254, -27.42, -27.42, -0.2247, 0.4467, 22.3343, -11.233, -11.233
334.44, (303.801,-14.4), 334.1988, 100.0, 334.19883608610263, -24.48, -24.48, -0.2157, 0.4511, 22.5533, -10.7864, -10.7864
334.14, (305.383,-15.257), 333.8988, 100.0, 333.1188246732106, -27.78, -27.78, -0.2242, 0.4469, 22.346, -11.2096, -11.2096
337.02, (307.225,-16.034), 336.7788, 100.0, 336.3588039353563, -23.46, -23.46, -0.1986, 0.4589, 22.9439, -9.9287, -9.9287
347.46, (309.127,-16.645), 347.2188, 100.0, 346.4387834256452, -14.4, -14.4, -0.1152, 0.4865, 24.3275, -5.7597, -5.7597
356.58, (311.104,-16.933), 356.3388, 100.0, 355.97876716902056, -4.92, -4.92, -0.033, 0.4989, 24.9456, -1.6481, -1.6481
5.58, (313.101,-16.894), 5.3387, 100.0, 5.338748802754789, 4.5, 4.5, 0.0486, 0.4976, 24.8815, 2.4309, 2.4309
1.74, (314.89,-16.705), 1.4987, 100.0, 2.2787329044466302, 3.66, 3.66, 0.022, 0.4995, 24.9758, 1.0992, 1.0992
10.32, (316.88,-16.527), 10.0787, 100.0, 9.358713558947354, 8.82, 8.82, 0.0834, 0.493, 24.6499, 4.1692, 4.1692
18.6, (318.818,-16.044), 18.3587, 100.0, 17.99869892355155, 17.52, 17.52, 0.1565, 0.4749, 23.7438, 7.825, 7.825
12.48, (320.535,-15.507), 12.2387, 100.0, 12.95868448491167, 14.64, 14.64, 0.1142, 0.4868, 24.3395, 5.7088, 5.7088
12.66, (322.503,-15.156), 12.4187, 100.0, 11.698667516703317, 11.1, 11.1, 0.1034, 0.4892, 24.4591, 5.1722, 5.1722
22.74, (324.406,-14.548), 22.4987, 100.0, 22.19865311796795, 21.36, 21.36, 0.1909, 0.4621, 23.107, 9.5429, 9.5429
18, (326.258,-13.798), 17.7586, 100.0, 17.75863650944363, 18.78, 18.78, 0.1545, 0.4755, 23.7764, 7.7254, 7.7254
8.1, (328.01,-13.393), 7.8586, 100.0, 8.578620478117578, 9.96, 9.96, 0.0767, 0.4941, 24.7044, 3.8333, 3.8333
358.38, (330.004,-13.279), 358.6214, 100.0, 358.9213905273998, -0.3, -0.3, -0.0115, 0.4999, 24.9934, -0.5759, -0.5759
359.4, (331.999,-13.41), 359.6414, 100.0, 359.28137659373937, -2.1, -2.1, -0.0084, 0.4999, 24.9965, -0.4189, -0.4189
10.2, (334.186,-13.21), 10.4414, 100.0, 10.441356294374271, 9.42, 9.42, 0.0885, 0.4921, 24.6049, 4.4271, 4.4271
8.34, (335.947,-12.841), 8.5813, 100.0, 9.301342374197652, 10.14, 10.14, 0.0787, 0.4938, 24.6881, 3.9367, 3.9367
358.62, (337.941,-12.721), 359.0987, 100.0, 359.45867106531375, 0.12, 0.12, -0.0089, 0.4999, 24.996, -0.445, -0.445
358.86, (339.736,-12.847), 359.3387, 100.0, 358.3186549993383, -3.24, -3.24, -0.0188, 0.4996, 24.9822, -0.9423, -0.9423
349.2, (341.725,-13.032), 349.6786, 100.0, 350.39864048585554, -8.94, -8.94, -0.0875, 0.4923, 24.6141, -4.3756, -4.3756
358.92, (343.71,-13.255), 359.3986, 100.0, 358.73862194071813, -2.88, -2.88, -0.0152, 0.4998, 24.9885, -0.7591, -0.7591
360.06, (345.708,-13.19), 0.4186, 100.0, 0.7186112786436867, 1.32, 1.32, 0.0021, 0.5, 24.9998, 0.1047, 0.1047
7.5, (347.505,-13.111), 8.5786, 100.0, 7.498601440587543, 5.64, 5.64, 0.0559, 0.4969, 24.8432, 2.7954, 2.7954
17.82, (349.456,-12.684), 18.8986, 100.0, 18.178582579621175, 16.02, 16.02, 0.147, 0.4779, 23.8948, 7.351, 7.351
27.54, (351.305,-11.929), 28.6186, 100.0, 27.898561406901962, 25.74, 25.74, 0.2256, 0.4462, 22.3107, 11.2797, 11.2797
19.92, (353.121,-11.096), 20.9985, 100.0, 21.418543339653898, 21.06, 21.06, 0.1738, 0.4688, 23.4412, 8.6898, 8.6898
10.32, (354.853,-10.615), 11.3985, 100.0, 12.478532671496357, 12.48, 12.48, 0.0988, 0.4901, 24.5068, 4.9414, 4.9414
360, (356.841,-10.423), 1.0785, 100.0, 1.858514408514983, 1.86, 1.86, 0.0068, 0.5, 24.9977, 0.3403, 0.3403
5.88, (358.839,-10.373), 7.6815, 100.0, 7.26147550652317, 4.38, 4.38, 0.0476, 0.4977, 24.8866, 2.3788, 2.3788
16.2, (360.604,-10.03), 18.0015, 100.0, 16.80146190052282, 14.28, 14.28, 0.1294, 0.483, 24.1481, 6.4705, 6.4705
7.68, (362.551,-9.585), 9.4815, 100.0, 10.201450969429931, 9.18, 9.18, 0.073, 0.4946, 24.7318, 3.6521, 3.6521
5.7, (364.538,-9.357), 7.5014, 100.0, 6.781434099605403, 4.2, 4.2, 0.0434, 0.4981, 24.9056, 2.1702, 2.1702
12.3, (366.502,-8.995), 14.1014, 100.0, 14.461414564488843, 13.92, 13.92, 0.1096, 0.4878, 24.3922, 5.4791, 5.4791
2.1, (368.485,-8.752), 3.9014, 100.0, 3.9013982317721037, 3.18, 3.18, 0.0183, 0.4997, 24.9832, 0.9161, 0.9161
0.96, (370.284,-8.73), 2.6414, 100.0, 3.721382526717502, 2.88, 2.88, 0.0178, 0.4997, 24.9842, 0.8899, 0.8899
353.58, (372.278,-8.854), 355.3786, 100.0, 354.59860977906214, -7.56, -7.56, -0.0627, 0.4961, 24.8029, -3.1333, -3.1333
3.78, (374.275,-8.896), 5.5786, 100.0, 5.218594611206934, 2.34, 2.34, 0.0298, 0.4991, 24.9555, 1.4914, 1.4914
358.2, (376.072,-8.819), 359.8814, 100.0, 0.05858465556570502, -0.06, -0.06, -0.0099, 0.4999, 24.9951, -0.4974, -0.4974
352.02, (378.065,-8.969), 353.7014, 100.0, 354.12140225506255, -6.48, -6.48, -0.0658, 0.4957, 24.7827, -3.2891, -3.2891
346.32, (380.025,-9.365), 348.0014, 100.0, 348.00138667374176, -12.6, -12.6, -0.1182, 0.4858, 24.2908, -5.9125, -5.9125
336.3, (381.727,-9.944), 337.9814, 100.0, 338.7013727575041, -21.9, -21.9, -0.1952, 0.4603, 23.016, -9.7602, -9.7602
326.34, (383.483,-10.897), 328.0214, 100.0, 328.44135478388256, -32.04, -32.04, -0.2741, 0.4182, 20.9095, -13.7037, -13.7037
316.56, (384.894,-12.011), 318.2413, 100.0, 318.96134103560706, -41.52, -41.52, -0.3392, 0.3673, 18.3669, -16.9604, -16.9604
306.9, (386.218,-13.507), 308.5813, 100.0, 308.5813253777337, -51.72, -51.72, -0.3998, 0.3002, 15.0105, -19.9921, -19.9921
314.1, (387.491,-15.046), 315.7813, 100.0, 315.7813127635075, -46.92, -46.92, -0.3591, 0.348, 17.3978, -17.9532, -17.9532
310.68, (388.698,-16.379), 312.3613, 100.0, 311.28129631808, -50.88, -50.88, -0.3853, 0.3187, 15.9356, -19.2628, -19.2628
319.86, (390.267,-17.917), 321.5413, 100.0, 321.5412766921891, -41.22, -41.22, -0.3223, 0.3822, 19.1118, -16.1164, -16.1164
327.12, (391.739,-18.951), 328.8013, 100.0, 329.82126204462077, -32.1, -32.1, -0.2639, 0.4247, 21.2335, -13.1961, -13.1961
317.34, (393.322,-20.169), 319.0212, 100.0, 319.3812441603671, -41.28, -41.28, -0.3365, 0.3698, 18.4908, -16.8253, -16.8253
325.98, (394.878,-21.421), 327.6612, 100.0, 327.66122836287343, -35.22, -35.22, -0.2797, 0.4144, 20.7211, -13.9871, -13.9871
317.7, (396.31,-22.508), 319.3812, 100.0, 320.1612100772237, -40.32, -40.32, -0.3314, 0.3744, 18.7181, -16.572, -16.572
324, (397.822,-23.814), 325.6812, 100.0, 324.96119447535506, -37.74, -37.74, -0.299, 0.4008, 20.0392, -14.9476, -14.9476
333.12, (399.523,-24.863), 334.8012, 100.0, 334.38118119699203, -28.32, -28.32, -0.2293, 0.4443, 22.2154, -11.4662, -11.4662
341.22, (401.174,-25.576), 342.9012, 100.0, 341.70116617620016, -21.12, -21.12, -0.1708, 0.4699, 23.4953, -8.5423, -8.5423
331.2, (403.008,-26.368), 332.8812, 100.0, 333.60115047042143, -26.94, -26.94, -0.2354, 0.4411, 22.0573, -11.7676, -11.7676
340.86, (404.825,-27.199), 342.5411, 100.0, 341.7611381199829, -21.06, -21.06, -0.1704, 0.4701, 23.5042, -8.5177, -8.5177
339.66, (406.689,-27.921), 341.3411, 100.0, 340.9811229570295, -21.78, -21.78, -0.1767, 0.4677, 23.3861, -8.8369, -8.8369
344.22, (408.608,-28.479), 345.9011, 100.0, 345.9011099354601, -15.42, -15.42, -0.136, 0.4812, 24.0578, -6.7986, -6.7986
353.88, (410.375,-28.816), 355.5611, 100.0, 354.90109644503076, -7.86, -7.86, -0.059, 0.4965, 24.8252, -2.9514, -2.9514
345.24, (412.336,-29.191), 346.9211, 100.0, 346.201083384513, -14.4, -14.4, -0.1335, 0.4819, 24.0931, -6.6725, -6.6725
354.24, (414.305,-29.53), 355.9211, 100.0, 356.2810729050695, -6.12, -6.12, -0.0471, 0.4978, 24.889, -2.3527, -2.3527
0.96, (416.299,-29.655), 2.6411, 100.0, 2.641055340724986, -0.18, -0.18, 0.0084, 0.4999, 24.9965, 0.4189, 0.4189
6.24, (418.096,-29.571), 7.921, 100.0, 7.201042239948316, 4.38, 4.38, 0.0481, 0.4977, 24.8841, 2.4048, 2.4048
3.3, (420.08,-29.325), 4.981, 100.0, 5.641027101602158, 5.04, 5.04, 0.0345, 0.4988, 24.9403, 1.7265, 1.7265
1.5, (421.879,-29.26), 2.581, 100.0, 3.2410081370623915, 2.88, 2.88, 0.0188, 0.4996, 24.9822, 0.9423, 0.9423
355.8, (423.875,-29.358), 356.759, 100.0, 356.39898297153127, -5.64, -5.64, -0.0398, 0.4984, 24.9209, -1.9876, -1.9876
357.96, (425.874,-29.383), 359.519, 100.0, 359.5189681205158, -1.02, -1.02, -0.0178, 0.4997, 24.9842, -0.8899, -0.8899
354.18, (427.662,-29.583), 355.739, 100.0, 354.65895132391125, -7.98, -7.98, -0.0601, 0.4964, 24.8189, -3.0034, -3.0034
3.36, (429.659,-29.628), 4.9189, 100.0, 4.258934900737889, 1.62, 1.62, 0.0236, 0.4994, 24.9722, 1.1777, 1.1777
9.66, (431.638,-29.353), 11.2189, 100.0, 11.878920230731254, 11.4, 11.4, 0.0896, 0.4919, 24.5956, 4.4786, 4.4786
359.94, (433.629,-29.193), 0.8989, 100.0, 1.2589070391411439, 1.08, 1.08, 0.0026, 0.5, 24.9997, 0.1309, 0.1309
349.86, (435.421,-29.343), 351.0611, 100.0, 352.0810791355705, -7.92, -7.92, -0.0793, 0.4937, 24.684, -3.9626, -3.9626
354.48, (437.39,-29.685), 355.6811, 100.0, 355.0210642103126, -7.26, -7.26, -0.0538, 0.4971, 24.8547, -2.6913, -2.6913
356.46, (439.384,-29.841), 357.661, 100.0, 357.2410471992238, -5.1, -5.1, -0.0345, 0.4988, 24.9403, -1.7265, -1.7265
1.2, (441.182,-29.82), 2.401, 100.0, 3.301037501832502, 3.24, 3.24, 0.0183, 0.4997, 24.9832, 0.9161, 0.9161
9.36, (443.174,-29.673), 10.561, 100.0, 10.20102384041613, 7.62, 7.62, 0.0782, 0.4938, 24.6922, 3.9109, 3.9109
19.32, (445.107,-29.169), 20.521, 100.0, 20.521007930924554, 18.18, 18.18, 0.1654, 0.4718, 23.5921, 8.2711, 8.2711
24.72, (446.972,-28.451), 25.921, 100.0, 25.920992915053432, 23.94, 23.94, 0.2091, 0.4542, 22.7091, 10.4546, 10.4546
21.54, (448.596,-27.676), 22.741, 100.0, 23.400975505854756, 23.16, 23.16, 0.1889, 0.4629, 23.1468, 9.446, 9.446
11.94, (450.51,-27.106), 13.141, 100.0, 13.500954519267953, 13.02, 13.02, 0.1065, 0.4885, 24.4261, 5.3258, 5.3258
2.04, (452.294,-26.884), 3.2409, 100.0, 4.080936927027383, 3.9, 3.9, 0.0251, 0.4994, 24.9684, 1.2561, 1.2561
6.54, (454.292,-26.808), 7.2609, 100.0, 6.540919582106749, 4.74, 4.74, 0.0507, 0.4974, 24.8711, 2.5351, 2.5351
15.84, (456.249,-26.41), 16.5609, 100.0, 16.560903299713008, 14.94, 14.94, 0.1365, 0.481, 24.0507, 6.8238, 6.8238
5.76, (458.014,-26.067), 6.4809, 100.0, 7.560889900054807, 7.86, 7.86, 0.0595, 0.4964, 24.8221, 2.9774, 2.9774
355.56, (460.011,-26.028), 356.2791, 100.0, 357.0591169122362, -2.58, -2.58, -0.0319, 0.499, 24.949, -1.5959, -1.5959
345.78, (461.982,-26.349), 346.4991, 100.0, 346.8591059608863, -12.78, -12.78, -0.1198, 0.4854, 24.2721, -5.9888, -5.9888
355.8, (463.755,-26.645), 356.5191, 100.0, 355.7990954279905, -6.06, -6.06, -0.0429, 0.4982, 24.9079, -2.1441, -2.1441
4.74, (465.753,-26.653), 5.4591, 100.0, 5.0990740043385605, 3.24, 3.24, 0.0382, 0.4985, 24.927, 1.9093, 1.9093
13.68, (467.725,-26.337), 14.3991, 100.0, 14.399057286255134, 12.66, 12.66, 0.1182, 0.4858, 24.2908, 5.9125, 5.9125
21.18, (469.638,-25.756), 21.899, 100.0, 21.599042290388716, 19.8, 19.8, 0.1782, 0.4672, 23.3582, 8.9103, 8.9103
30.84, (471.254,-24.969), 31.559, 100.0, 30.83902291778642, 28.98, 28.98, 0.2509, 0.4325, 21.6244, 12.5453, 12.5453
40.86, (472.875,-23.802), 41.579, 100.0, 41.21900993704394, 39.42, 39.42, 0.3247, 0.3802, 19.0101, 16.2362, 16.2362
39.78, (474.344,-22.446), 40.499, 100.0, 40.4989944592239, 41.22, 41.22, 0.3199, 0.3843, 19.2127, 15.996, 15.996
30.06, (475.822,-21.422), 30.779, 100.0, 31.49897380634045, 31.74, 31.74, 0.2559, 0.4296, 21.4785, 12.7936, 12.7936
24.72, (477.624,-20.558), 25.439, 100.0, 25.138957480614142, 22.98, 22.98, 0.2067, 0.4553, 22.7635, 10.3356, 10.3356
30.48, (479.365,-19.578), 31.1989, 100.0, 31.61894512844241, 31.92, 31.92, 0.2568, 0.429, 21.4516, 12.8385, 12.8385
27.42, (481.151,-18.68), 28.1389, 100.0, 27.778929099954322, 25.98, 25.98, 0.2275, 0.4453, 22.2633, 11.3731, 11.3731
37.08, (482.67,-17.716), 37.7989, 100.0, 37.078913785659616, 35.22, 35.22, 0.2964, 0.4027, 20.1327, 14.8214, 14.8214
43.5, (484.16,-16.386), 44.2189, 100.0, 44.998901713794794, 45, 45, 0.3491, 0.358, 17.8984, 17.4541, 17.4541
36.78, (485.56,-15.257), 37.4989, 100.0, 36.71888532072776, 35.34, 35.34, 0.2939, 0.4045, 20.2254, 14.6946, 14.6946
28.14, (487.23,-14.161), 28.8589, 100.0, 29.278873365735947, 29.64, 29.64, 0.239, 0.4392, 21.9579, 11.952, 11.952
29.82, (488.956,-13.152), 30.5389, 100.0, 30.89885547240848, 31.2, 31.2, 0.2514, 0.4322, 21.6113, 12.568, 12.568
20.4, (490.585,-12.392), 21.1188, 100.0, 21.838843365870456, 22.62, 22.62, 0.1802, 0.4664, 23.3207, 9.0081, 9.0081
10.38, (492.508,-11.848), 11.0988, 100.0, 12.178825844909882, 12.54, 12.54, 0.0993, 0.49, 24.5016, 4.9671, 4.9671
0.48, (494.495,-11.655), 1.1988, 100.0, 1.5588141989472868, 1.92, 1.92, 0.0073, 0.4999, 24.9973, 0.3665, 0.3665
7.02, (496.492,-11.568), 7.8612, 100.0, 7.561173806453396, 5.64, 5.64, 0.0585, 0.4966, 24.8282, 2.9254, 2.9254
6.84, (498.266,-11.266), 7.6812, 100.0, 8.821152887200364, 9.06, 9.06, 0.0694, 0.4952, 24.7579, 3.4707, 3.4707
1.62, (500.262,-11.172), 2.2189, 100.0, 1.8588590440002564, 0.18, 0.18, 0.011, 0.4999, 24.994, 0.5497, 0.5497
7.8, (502.248,-10.95), 8.3988, 100.0, 8.398840815763823, 8.88, 8.88, 0.0679, 0.4954, 24.7687, 3.3929, 3.3929
5.58, (504.043,-10.825), 6.1788, 100.0, 5.518821372363319, 3.9, 3.9, 0.0429, 0.4982, 24.9079, 2.1441, 2.1441
0.66, (506.034,-10.656), 1.2588, 100.0, 1.6188029432832707, 1.8, 1.8, 0.0089, 0.4999, 24.996, 0.445, 0.445
4.26, (507.833,-10.653), 5.1012, 100.0, 3.961182545893791, 2.4, 2.4, 0.0272, 0.4993, 24.9629, 1.3607, 1.3607
9.06, (509.81,-10.358), 9.9012, 100.0, 9.901163648798267, 10.26, 10.26, 0.0787, 0.4938, 24.6881, 3.9367, 3.9367
16.98, (511.568,-9.982), 17.8212, 100.0, 17.101152890427706, 15.24, 15.24, 0.14, 0.48, 24, 6.9999, 6.9999
9.24, (513.505,-9.493), 10.0811, 100.0, 10.441134885502056, 10.68, 10.68, 0.0834, 0.493, 24.6499, 4.1692, 4.1692
359.34, (515.497,-9.346), 0.0611, 100.0, 0.4211174645944405, 0.66, 0.66, -0.0026, 0.5, 24.9997, -0.1309, -0.1309
349.8, (517.288,-9.507), 351.1189, 100.0, 352.1988688188822, -8.04, -8.04, -0.0793, 0.4937, 24.684, -3.9626, -3.9626
339.9, (519.219,-10.018), 341.2189, 100.0, 341.87885175726916, -18.3, -18.3, -0.1664, 0.4715, 23.5748, -8.3205, -8.3205
330.36, (521.029,-10.862), 331.6788, 100.0, 331.6788357741872, -28.56, -28.56, -0.2473, 0.4346, 21.7287, -12.3637, -12.3637
320.4, (522.505,-11.889), 321.7188, 100.0, 322.49881812215614, -37.74, -37.74, -0.3134, 0.3896, 19.478, -15.6719, -15.6719
330.48, (524.145,-13.03), 331.7988, 100.0, 331.0188008761803, -31.02, -31.02, -0.2523, 0.4317, 21.5849, -12.6132, -12.6132
339.24, (525.945,-13.896), 340.5588, 100.0, 340.1987859453906, -22.26, -22.26, -0.1802, 0.4664, 23.3207, -9.0081, -9.0081
331.8, (527.775,-14.697), 333.1188, 100.0, 333.1187680562782, -27.06, -27.06, -0.2363, 0.4407, 22.0326, -11.8138, -11.8138
336.54, (529.367,-15.534), 337.8588, 100.0, 337.1387555334009, -25.26, -25.26, -0.2048, 0.4561, 22.8066, -10.2401, -10.2401
332.34, (531.204,-16.323), 333.6587, 100.0, 334.3787383364872, -25.8, -25.8, -0.2265, 0.4457, 22.287, -11.3264, -11.3264
322.74, (532.89,-17.394), 324.0587, 100.0, 324.4187226840536, -35.82, -35.82, -0.3002, 0.3998, 19.9921, -15.0105, -15.0105
312.84, (534.227,-18.596), 314.1587, 100.0, 315.1787089888701, -45, -45, -0.3605, 0.3464, 17.3225, -18.0259, -18.0259
302.94, (535.462,-20.166), 304.2587, 100.0, 304.9786921024512, -55.2, -55.2, -0.4162, 0.2771, 13.8566, -20.8085, -20.8085
295.86, (536.405,-21.928), 297.1787, 100.0, 297.17867195221186, -65.34, -65.34, -0.4499, 0.2181, 10.9043, -22.4966, -22.4966
300.9, (537.321,-23.476), 302.2187, 100.0, 302.9386554234472, -57.6, -57.6, -0.4258, 0.2621, 13.1071, -21.2886, -21.2886
295.44, (538.207,-25.267), 296.7586, 100.0, 296.39863684329464, -66, -66, -0.4529, 0.2119, 10.5971, -22.6429, -22.6429
304.2, (539.228,-26.984), 305.5186, 100.0, 305.5186216378376, -55.5, -55.5, -0.4135, 0.281, 14.0521, -20.677, -20.677
295.08, (540.099,-28.557), 296.3986, 100.0, 296.0386056298386, -64.14, -64.14, -0.4542, 0.2091, 10.4546, -22.7091, -22.7091
305.16, (541.108,-30.281), 306.4786, 100.0, 306.47858954016203, -55.92, -55.92, -0.4088, 0.2879, 14.3965, -20.4387, -20.4387
295.98, (542.122,-32.001), 297.2986, 100.0, 297.2985731732034, -62.94, -62.94, -0.4495, 0.219, 10.9514, -22.4737, -22.4737
286.68, (542.721,-33.483), 287.9986, 100.0, 289.1385616606061, -71.1, -71.1, -0.476, 0.153, 7.6507, -23.8006, -23.8006
277.5, (543.162,-35.432), 278.8185, 100.0, 279.53854643884927, -80.64, -80.64, -0.4949, 0.0715, 3.5744, -24.7432, -24.7432
269.52, (543.306,-37.425), 270.8385, 100.0, 271.1985251348104, -88.98, -88.98, -0.5, -0.001, -0.0524, -24.9999, -24.9999
259.62, (543.115,-39.413), 260.9385, 100.0, 261.35850836628373, -99.18, -99.18, -0.4925, -0.0865, -4.324, -24.6232, -24.6232
262.74, (542.734,-41.375), 264.0585, 100.0, 264.05849626923936, -98.34, -98.34, -0.496, -0.0632, -3.1593, -24.7996, -24.7996
272.7, (542.674,-43.172), 274.0185, 100.0, 273.65848189827994, -88.74, -88.74, -0.4996, 0.0204, 1.0207, -24.9792, -24.9792
282.6, (542.947,-45.151), 283.9185, 100.0, 283.5584668781267, -78.84, -78.84, -0.4886, 0.106, 5.3002, -24.4317, -24.4317
281.58, (543.405,-46.891), 282.8985, 100.0, 283.6184561845192, -76.68, -76.68, -0.4885, 0.1065, 5.3258, -24.4261, -24.4261
271.32, (543.64,-48.875), 272.6384, 100.0, 273.4184375096982, -86.88, -86.88, -0.4997, 0.0183, 0.9161, -24.9832, -24.9832
271.08, (543.613,-50.874), 272.3984, 100.0, 272.3984164153573, -89.34, -89.34, -0.4999, 0.0094, 0.4712, -24.9956, -24.9956
261.12, (543.485,-52.667), 262.4384, 100.0, 262.85840491953513, -97.38, -97.38, -0.4946, -0.0736, -3.678, -24.728, -24.728
254.82, (542.978,-54.806), 256.1384, 100.0, 256.1383882906584, -106.2, -106.2, -0.4826, -0.1309, -6.5463, -24.1277, -24.1277
261.6, (542.626,-56.772), 262.9184, 100.0, 262.91837158344345, -97.26, -97.26, -0.4946, -0.073, -3.6521, -24.7318, -24.7318
251.76, (542.202,-58.52), 253.0784, 100.0, 253.85836206793275, -106.74, -106.74, -0.477, -0.15, -7.501, -23.8482, -23.8482
242.1, (541.414,-60.355), 243.4183, 100.0, 243.41834836205155, -116.82, -116.82, -0.4419, -0.234, -11.6982, -22.0941, -22.0941
231.72, (540.436,-61.864), 233.0383, 100.0, 234.17833572857944, -125.94, -125.94, -0.3986, -0.3019, -15.0941, -19.9291, -19.9291
222.24, (539.085,-63.335), 223.5583, 100.0, 223.97831906430272, -136.26, -136.26, -0.3388, -0.3677, -18.3847, -16.9412, -16.9412
212.4, (537.496,-64.545), 213.7183, 100.0, 214.07830388199673, -146.16, -146.16, -0.2706, -0.4205, -21.0236, -13.528, -13.528
215.46, (535.958,-65.479), 216.7783, 100.0, 215.99828588840376, -146.88, -146.88, -0.2845, -0.4112, -20.5586, -14.2248, -14.2248
223.08, (534.43,-66.766), 224.3983, 100.0, 225.1782681241509, -136.14, -136.14, -0.3464, -0.3605, -18.0259, -17.3225, -17.3225
214.02, (532.861,-68.003), 215.3382, 100.0, 215.33824707527685, -145.14, -145.14, -0.2797, -0.4144, -20.7211, -13.9871, -13.9871
203.64, (531.111,-68.964), 204.9582, 100.0, 205.3782259285265, -154.8, -154.8, -0.2038, -0.4566, -22.828, -10.1923, -10.1923
193.8, (529.219,-69.604), 195.1182, 100.0, 195.11821122642527, -164.7, -164.7, -0.1193, -0.4856, -24.2784, -5.9633, -5.9633
184.14, (527.444,-69.893), 185.4582, 100.0, 186.5381989216444, -173.7, -173.7, -0.0455, -0.4979, -24.8963, -2.2745, -2.2745
174.12, (525.447,-69.87), 175.4382, 100.0, 176.218182458717, 175.68, 175.68, 0.0444, -0.498, -24.901, 2.2224, 2.2224
181.8, (523.452,-69.764), 183.1182, 100.0, 182.75816261541112, -179.4, -179.4, -0.0126, -0.4998, -24.9921, -0.6283, -0.6283
192, (521.666,-69.975), 193.3181, 100.0, 192.2981437946252, -170.16, -170.16, -0.0952, -0.4908, -24.5423, -4.7617, -4.7617
184.98, (519.699,-70.322), 186.2981, 100.0, 187.01813443337542, -173.22, -173.22, -0.0497, -0.4975, -24.8764, -2.483, -2.483
174.96, (517.701,-70.329), 176.2781, 100.0, 177.05811837619237, 176.82, 176.82, 0.0371, -0.4986, -24.9309, 1.8571, 1.8571
165.42, (515.732,-69.992), 166.7381, 100.0, 167.09810343179436, 166.92, 166.92, 0.1228, -0.4847, -24.234, 6.1411, 6.1411
155.76, (514.034,-69.399), 157.0781, 100.0, 158.09809173856095, 157.92, 157.92, 0.1971, -0.4595, -22.9749, 9.8566, 9.8566
145.98, (512.286,-68.433), 147.2981, 100.0, 148.01807515234728, 147.66, 147.66, 0.2745, -0.4179, -20.8952, 13.7256, 13.7256
136.08, (510.731,-67.179), 137.3981, 100.0, 138.11805865195234, 137.94, 137.94, 0.3423, -0.3645, -18.2242, 17.1137, 17.1137
126.3, (509.415,-65.676), 127.618, 100.0, 128.03804211811968, 127.74, 127.74, 0.4008, -0.299, -14.9476, 20.0392, 20.0392
116.64, (508.477,-64.142), 117.958, 100.0, 118.73803191659181, 118.5, 118.5, 0.4438, -0.2303, -11.5127, 22.1914, 22.1914
106.68, (507.736,-62.287), 107.998, 100.0, 108.65801109336265, 108.06, 108.06, 0.4773, -0.149, -7.451, 23.8638, 23.8638
97.2, (507.326,-60.332), 98.518, 100.0, 98.87799441567054, 98.4, 98.4, 0.4957, -0.0658, -3.2891, 24.7827, 24.7827
86.88, (507.263,-58.336), 88.198, 100.0, 88.5579819074135, 88.32, 88.32, 0.4994, 0.0241, 1.2038, 24.971, 24.971
77.28, (507.506,-56.554), 78.598, 100.0, 79.25795930517289, 79.08, 79.08, 0.489, 0.1045, 5.2234, 24.4482, 24.4482
67.56, (508.102,-54.648), 68.8779, 100.0, 69.17794074905412, 69, 69, 0.4631, 0.1884, 9.4218, 23.1566, 23.1566
57.84, (509.021,-52.875), 59.1579, 100.0, 59.15792881953516, 58.98, 58.98, 0.4233, 0.2661, 13.3071, 21.1641, 21.1641
47.88, (510.109,-51.443), 49.1979, 100.0, 49.977914940113024, 49.8, 49.8, 0.3754, 0.3303, 16.5131, 18.7701, 18.7701
38.22, (511.567,-50.077), 39.5379, 100.0, 39.89789902904017, 39.6, 39.6, 0.3118, 0.3909, 19.5435, 15.5902, 15.5902
28.26, (513.241,-48.988), 29.5779, 100.0, 29.997885531064526, 29.64, 29.64, 0.24, 0.4387, 21.9328, 11.9979, 11.9979
18.72, (514.889,-48.268), 20.0379, 100.0, 21.057870184404113, 20.52, 20.52, 0.1689, 0.4706, 23.5309, 8.4438, 8.4438
8.7, (516.826,-47.783), 10.0179, 100.0, 10.79785400254215, 10.62, 10.62, 0.0824, 0.4932, 24.6586, 4.1176, 4.1176
359.34, (518.619,-47.649), 0.5378, 100.0, 1.2578382973713198, 1.32, 1.32, 0.0005, 0.5, 25, 0.0262, 0.0262
349.5, (520.607,-47.844), 351.1821, 100.0, 351.90214464781764, -9, -9, -0.0849, 0.4927, 24.6367, -4.2466, -4.2466
347.94, (522.549,-48.322), 349.6221, 100.0, 349.20212416448186, -13.56, -13.56, -0.108, 0.4882, 24.4093, -5.4025, -5.4025
352.26, (524.525,-48.622), 353.9421, 100.0, 353.2821092644669, -9.18, -9.18, -0.073, 0.4946, 24.7318, -3.6521, -3.6521
0, (526.521,-48.712), 1.6821, 100.0, 1.6820878704941509, 1.02, 1.02, 0, 0.5, 25, 0, 0
6.3, (528.319,-48.661), 7.9779, 100.0, 7.197898831483874, 4.44, 4.44, 0.0481, 0.4977, 24.8841, 2.4048, 2.4048
356.7, (530.315,-48.587), 358.7421, 100.0, 359.52211773545366, -1.44, -1.44, -0.022, 0.4995, 24.9758, -1.0992, -1.0992
4.68, (532.312,-48.586), 6.7221, 100.0, 6.722107238169144, 3.66, 3.66, 0.0408, 0.4983, 24.9166, 2.0398, 2.0398
6.42, (534.3,-48.366), 8.4621, 100.0, 8.102085906704295, 4.98, 4.98, 0.0528, 0.4972, 24.8603, 2.6392, 2.6392
12.54, (536.064,-48.018), 14.5821, 100.0, 15.662077618859428, 14.4, 14.4, 0.1177, 0.4859, 24.297, 5.887, 5.887
2.46, (538.042,-47.742), 4.5021, 100.0, 5.222061506623453, 4.2, 4.2, 0.0277, 0.4992, 24.9615, 1.3868, 1.3868
359.58, (540.242,-47.758), 2.0979, 100.0, 2.0979442179892294, -1.5, -1.5, -0.0037, 0.5, 24.9993, -0.1833, -0.1833
9.48, (542.034,-47.612), 11.9979, 100.0, 11.637930857608499, 8.1, 8.1, 0.0793, 0.4937, 24.684, 3.9626, 3.9626
13.8, (543.975,-47.135), 16.3179, 100.0, 16.737916201856713, 15.24, 15.24, 0.1228, 0.4847, 24.234, 6.1411, 6.1411
3.9, (545.751,-46.855), 6.4179, 100.0, 7.497900358818557, 5.7, 5.7, 0.0434, 0.4981, 24.9056, 2.1702, 2.1702
356.22, (547.748,-46.88), 359.3379, 100.0, 358.6778809467373, -4.38, -4.38, -0.0387, 0.4985, 24.925, -1.9354, -1.9354
5.28, (549.745,-46.838), 8.3979, 100.0, 8.037863409801552, 4.92, 4.92, 0.0429, 0.4982, 24.9079, 2.1441, 2.1441
15.24, (551.515,-46.52), 18.3578, 100.0, 17.637845597782754, 13.5, 13.5, 0.1254, 0.484, 24.2015, 6.2679, 6.2679
5.4, (553.478,-46.153), 8.5178, 100.0, 9.237829691104318, 6.9, 6.9, 0.0533, 0.4972, 24.8575, 2.6653, 2.6653
14.64, (555.448,-45.821), 17.7578, 100.0, 17.397814511827452, 13.14, 13.14, 0.1233, 0.4846, 24.2275, 6.1665, 6.1665
24.84, (557.14,-45.215), 27.9578, 100.0, 27.237803527411064, 23.16, 23.16, 0.2043, 0.4563, 22.8173, 10.2162, 10.2162
15.48, (559.01,-44.513), 18.5978, 100.0, 19.017788926345553, 17.04, 17.04, 0.137, 0.4809, 24.0435, 6.849, 6.849
11.58, (560.969,-44.116), 14.6978, 100.0, 14.337768929865403, 10.2, 10.2, 0.0973, 0.4904, 24.5222, 4.8644, 4.8644
16.14, (562.892,-43.571), 19.2577, 100.0, 19.25774575553083, 17.22, 17.22, 0.139, 0.4803, 24.0146, 6.9496, 6.9496
22.68, (564.607,-43.029), 25.7977, 100.0, 24.717726373888087, 20.52, 20.52, 0.1841, 0.4649, 23.2444, 9.2031, 9.2031
32.46, (566.385,-42.118), 35.5777, 100.0, 34.79770642281556, 30.54, 30.54, 0.2626, 0.4255, 21.2749, 13.1294, 13.1294
41.76, (567.977,-40.912), 44.8777, 100.0, 44.87769168489956, 40.68, 40.68, 0.333, 0.373, 18.6485, 16.6503, 16.6503
44.82, (569.412,-39.519), 47.9377, 100.0, 47.93767502134982, 43.74, 43.74, 0.3524, 0.3547, 17.7331, 17.622, 17.622
51.18, (570.573,-38.146), 54.2977, 100.0, 54.7176631067775, 52.56, 52.56, 0.3918, 0.3106, 15.5287, 19.5923, 19.5923
41.46, (571.96,-36.708), 44.5776, 100.0, 44.577646962287254, 42.3, 42.3, 0.331, 0.3747, 18.7355, 16.5524, 16.5524
51.06, (573.213,-35.419), 54.1776, 100.0, 53.097637309695905, 48.84, 48.84, 0.3829, 0.3215, 16.0764, 19.1455, 19.1455
42, (574.566,-33.949), 45.1176, 100.0, 45.83762484304214, 43.8, 43.8, 0.3392, 0.3673, 18.3669, 16.9604, 16.9604
40.08, (576.128,-32.702), 43.1976, 100.0, 42.5376085078534, 38.34, 38.34, 0.3175, 0.3863, 19.3128, 15.875, 15.875
43.08, (577.572,-31.319), 46.1976, 100.0, 46.197592293973806, 44.1, 44.1, 0.3415, 0.3652, 18.26, 17.0755, 17.0755
32.88, (578.991,-30.215), 35.9976, 100.0, 37.077574554513355, 34.68, 34.68, 0.2793, 0.4147, 20.7357, 13.9653, 13.9653
24.18, (580.752,-29.272), 27.2976, 100.0, 26.99755931180226, 24.6, 24.6, 0.2024, 0.4572, 22.8599, 10.1206, 10.1206
34.56, (582.488,-28.285), 37.6775, 100.0, 37.377544565726176, 33.24, 33.24, 0.2815, 0.4132, 20.6623, 14.0737, 14.0737
37.86, (583.896,-27.165), 40.9775, 100.0, 42.05752484078631, 40.08, 40.08, 0.3143, 0.3889, 19.4451, 15.7127, 15.7127
34.08, (585.554,-26.048), 37.1975, 100.0, 36.77750771145746, 32.52, 32.52, 0.2771, 0.4162, 20.8085, 13.8566, 13.8566
24.48, (587.286,-25.053), 27.5975, 100.0, 28.3774904834736, 26.34, 26.34, 0.2134, 0.4522, 22.6095, 10.6682, 10.6682
14.94, (589.164,-24.373), 18.0575, 100.0, 18.477475994412952, 16.44, 16.44, 0.1324, 0.4821, 24.107, 6.6221, 6.6221
9.18, (591.13,-24.015), 12.2975, 100.0, 12.297458266796125, 8.16, 8.16, 0.0798, 0.4936, 24.6798, 3.9884, 3.9884
15.6, (592.873,-23.573), 18.7174, 100.0, 19.7974423950021, 17.4, 17.4, 0.1435, 0.479, 23.9481, 7.1757, 7.1757
6.18, (594.835,-23.2), 9.2974, 100.0, 9.297426721658768, 6.9, 6.9, 0.0538, 0.4971, 24.8547, 2.6913, 2.6913
2.22, (596.63,-23.066), 5.3374, 100.0, 6.3574160532542665, 3.96, 3.96, 0.0283, 0.4992, 24.96, 1.413, 1.413
353.94, (598.627,-23.128), 357.1774, 100.0, 357.5374078189251, -4.5, -4.5, -0.0497, 0.4975, 24.8764, -2.483, -2.483
350.1, (600.595,-23.48), 353.3374, 100.0, 353.337396144155, -11.04, -11.04, -0.086, 0.4926, 24.6277, -4.2982, -4.2982
359.88, (602.387,-23.634), 3.1174, 100.0, 2.517375589799678, -1.86, -1.86, -0.0063, 0.5, 24.998, -0.3142, -0.3142
359.7, (604.384,-23.556), 2.9374, 100.0, 3.237360603651003, 1.02, 1.02, 0, 0.5, 25, 0, 0
349.44, (606.372,-23.752), 353.3973, 100.0, 353.8173472681758, -9.36, -9.36, -0.088, 0.4922, 24.6095, -4.4013, -4.4013
349.98, (608.322,-24.192), 353.9373, 100.0, 353.9373303472125, -11.1, -11.1, -0.087, 0.4924, 24.6187, -4.3498, -4.3498
350.4, (610.108,-24.418), 354.3573, 100.0, 355.01731981043054, -7.98, -7.98, -0.0777, 0.4939, 24.6963, -3.885, -3.885
347.64, (612.053,-24.878), 351.5973, 100.0, 351.2373048724958, -13.8, -13.8, -0.1101, 0.4877, 24.3864, -5.5047, -5.5047
341.94, (613.996,-25.345), 345.8973, 100.0, 346.25728992663835, -16.62, -16.62, -0.152, 0.4763, 23.8165, -7.6008, -7.6008
347.34, (615.714,-25.877), 351.2973, 100.0, 350.5772705398021, -14.46, -14.46, -0.1157, 0.4864, 24.3214, -5.7852, -5.7852
357.54, (617.693,-26.148), 1.4973, 100.0, 0.8972567783770581, -4.2, -4.2, -0.0267, 0.4993, 24.9644, -1.3345, -1.3345
2.82, (619.69,-26.085), 6.7772, 100.0, 7.497235609842302, 4.62, 4.62, 0.0309, 0.499, 24.9523, 1.5436, 1.5436
359.58, (621.689,-26.121), 3.4228, 100.0, 2.702770442269874, -1.92, -1.92, -0.0099, 0.4999, 24.9951, -0.4974, -0.4974
3.78, (623.684,-25.99), 7.6227, 100.0, 8.042749404025903, 5.16, 5.16, 0.0366, 0.4987, 24.9329, 1.831, 1.831
353.64, (625.481,-26.027), 357.5973, 100.0, 358.6772593213035, -4.26, -4.26, -0.046, 0.4979, 24.8939, -2.3006, -2.3006
358.74, (627.469,-26.236), 2.6972, 100.0, 1.5572401743093787, -3.42, -3.42, -0.0209, 0.4996, 24.9781, -1.0469, -1.0469
355.56, (629.468,-26.265), 360.3572, 100.0, 0.0027735611421242233, -2.94, -2.94, -0.0356, 0.4987, 24.9366, -1.7787, -1.7787
352.2, (631.446,-26.553), 356.9972, 100.0, 356.6372046066091, -9.18, -9.18, -0.071, 0.4949, 24.7469, -3.5484, -3.5484
2.28, (633.242,-26.645), 7.0772, 100.0, 6.05718116642484, 0.18, 0.18, 0.011, 0.4999, 24.994, 0.5497, 0.5497
12.18, (635.224,-26.401), 16.9772, 100.0, 16.55716896436263, 10.74, 10.74, 0.1019, 0.4895, 24.4752, 5.0953, 5.0953
2.58, (637.203,-26.132), 7.3772, 100.0, 7.797155042339061, 4.08, 4.08, 0.0262, 0.4993, 24.9657, 1.3084, 1.3084
356.34, (639.001,-26.195), 1.7428, 100.0, 0.7228479964257386, -5.4, -5.4, -0.0408, 0.4983, 24.9166, -2.0398, -2.0398
1.68, (640.999,-26.176), 7.0828, 100.0, 7.862832545395608, 3.24, 3.24, 0.0215, 0.4995, 24.977, 1.073, 1.073
352.68, (642.993,-26.285), 358.0772, 100.0, 358.4371752782184, -6, -6, -0.0606, 0.4963, 24.8158, -3.0294, -3.0294
343.44, (644.943,-26.721), 348.8372, 100.0, 348.837158771444, -15.9, -15.9, -0.1425, 0.4793, 23.963, -7.1255, -7.1255
333.24, (646.614,-27.384), 338.6371, 100.0, 339.77714066929985, -24.54, -24.54, -0.2162, 0.4508, 22.542, -10.81, -10.81
323.58, (648.322,-28.42), 328.9771, 100.0, 329.75712571591663, -34.62, -34.62, -0.2913, 0.4063, 20.3174, -14.5673, -14.5673
331.14, (649.976,-29.54), 336.5371, 100.0, 335.81711318575765, -30.72, -30.72, -0.2468, 0.4348, 21.7417, -12.341, -12.341
330.42, (651.709,-30.538), 335.8171, 100.0, 335.8170971349864, -30.66, -30.66, -0.2468, 0.4348, 21.7417, -12.341, -12.341
335.22, (653.522,-31.38), 340.6171, 100.0, 340.6170787702169, -24.12, -24.12, -0.2096, 0.454, 22.6981, -10.4784, -10.4784
341.76, (655.174,-32.09), 347.1571, 100.0, 346.0770680198524, -20.4, -20.4, -0.1654, 0.4718, 23.5921, -8.2711, -8.2711
351.6, (657.116,-32.559), 356.997, 100.0, 356.5170484464884, -9.96, -9.96, -0.0772, 0.494, 24.7003, -3.8591, -3.8591
345.48, (659.084,-32.901), 350.877, 100.0, 351.29703035999376, -13.08, -13.08, -0.1218, 0.4849, 24.2468, -6.0904, -6.0904
335.34, (660.962,-33.581), 340.737, 100.0, 340.73701767930066, -23.64, -23.64, -0.2086, 0.4544, 22.72, -10.4308, -10.4308
325.5, (662.524,-34.473), 330.897, 100.0, 331.6170027330288, -32.76, -32.76, -0.278, 0.4156, 20.7795, -13.9001, -13.9001
329.4, (664.165,-35.613), 334.797, 100.0, 334.1369854548445, -32.4, -32.4, -0.2595, 0.4274, 21.3705, -12.9731, -12.9731
338.16, (665.959,-36.494), 343.557, 100.0, 342.7769672673093, -23.28, -23.28, -0.1923, 0.4615, 23.0769, -9.6154, -9.6154
340.8, (667.858,-37.12), 346.1969, 100.0, 346.5569435867433, -17.82, -17.82, -0.1615, 0.4732, 23.6606, -8.0732, -8.0732
330.72, (669.498,-37.855), 336.1169, 100.0, 337.1969298896719, -27.42, -27.42, -0.2363, 0.4407, 22.0326, -11.8138, -11.8138
322.32, (671.16,-38.964), 327.7169, 100.0, 327.0569107622896, -37.2, -37.2, -0.3102, 0.3922, 19.6086, -15.5082, -15.5082
331.5, (672.84,-40.043), 336.8969, 100.0, 337.2568965031351, -28.92, -28.92, -0.2358, 0.4409, 22.0449, -11.7907, -11.7907
321.84, (674.508,-41.142), 327.2369, 100.0, 327.2368845505941, -37.14, -37.14, -0.3089, 0.3931, 19.6572, -15.4465, -15.4465
313.2, (675.821,-42.371), 318.5969, 100.0, 318.29687039242395, -45.96, -45.96, -0.3663, 0.3404, 17.018, -18.3136, -18.3136
323.52, (677.309,-43.703), 328.9169, 100.0, 328.1968509851689, -38.16, -38.16, -0.3023, 0.3983, 19.9132, -15.115, -15.115
332.76, (679.002,-44.764), 338.1568, 100.0, 337.7368382669801, -28.86, -28.86, -0.2321, 0.4429, 22.1429, -11.6056, -11.6056
341.82, (680.848,-45.528), 347.2168, 100.0, 347.216824731334, -19.26, -19.26, -0.156, 0.475, 23.752, -7.8001, -7.8001
350.82, (682.596,-45.951), 356.2168, 100.0, 355.4368084384333, -11.1, -11.1, -0.0865, 0.4925, 24.6232, -4.324, -4.324
359.94, (684.588,-46.111), 5.3368, 100.0, 5.036787484357781, -1.5, -1.5, -0.0031, 0.5, 24.9995, -0.1571, -0.1571
8.94, (686.579,-45.944), 14.3368, 100.0, 14.33676766923013, 7.56, 7.56, 0.0777, 0.4939, 24.6963, 3.885, 3.885
17.82, (688.516,-45.457), 23.2167, 100.0, 23.21674896080674, 17.1, 17.1, 0.153, 0.476, 23.8006, 7.6507, 7.6507
26.88, (690.172,-44.754), 32.2767, 100.0, 31.31673560204508, 25.98, 25.98, 0.2186, 0.4497, 22.4851, 10.9279, 10.9279
36.06, (691.873,-43.707), 41.4567, 100.0, 40.73672017166892, 35.34, 35.34, 0.2892, 0.4079, 20.3933, 14.4607, 14.4607
45.36, (693.38,-42.396), 50.7567, 100.0, 51.05670519670861, 44.58, 44.58, 0.3576, 0.3495, 17.4729, 17.8801, 17.8801
55.2, (694.65,-40.855), 60.5967, 100.0, 60.59669327197409, 54.12, 54.12, 0.4106, 0.2854, 14.2678, 20.5287, 20.5287
64.44, (695.654,-39.128), 69.8367, 100.0, 69.83667312903142, 63.42, 63.42, 0.4511, 0.2157, 10.7864, 22.5533, 22.5533
73.26, (696.309,-37.453), 78.6567, 100.0, 78.23665823425681, 71.7, 71.7, 0.4777, 0.1475, 7.376, 23.8871, 23.8871
66.84, (696.943,-35.559), 72.2366, 100.0, 72.59663838507406, 68.28, 68.28, 0.4609, 0.1938, 9.6879, 23.0466, 23.0466
71.22, (697.717,-33.716), 76.6166, 100.0, 76.61662129244041, 70.2, 70.2, 0.4734, 0.161, 8.0484, 23.669, 23.669
67.8, (698.274,-32.005), 73.1966, 100.0, 74.2166134624848, 69.54, 69.54, 0.4662, 0.1806, 9.0325, 23.3112, 23.3112
68.88, (699.089,-30.18), 74.2766, 100.0, 73.55659444068066, 67.14, 67.14, 0.4641, 0.186, 9.3004, 23.2057, 23.2057
69.12, (699.729,-28.286), 74.5166, 100.0, 74.51658036966056, 70.2, 70.2, 0.4672, 0.1782, 8.9103, 23.3582, 23.3582
66.72, (700.559,-26.467), 72.1166, 100.0, 72.11656143033534, 65.64, 65.64, 0.4593, 0.1976, 9.8806, 22.9646, 22.9646
75.6, (701.133,-24.762), 80.9966, 100.0, 80.15655246367126, 73.62, 73.62, 0.4824, 0.1314, 6.5716, 24.1208, 24.1208
84.54, (701.479,-22.795), 89.9365, 100.0, 89.21653667844006, 82.8, 82.8, 0.4971, 0.0538, 2.6913, 24.8547, 24.8547
93.96, (701.496,-20.797), 99.3565, 100.0, 98.57652274123457, 92.82, 92.82, 0.4992, -0.0277, -1.3868, 24.9615, 24.9615
102.96, (701.188,-18.823), 108.3565, 100.0, 107.93650294143167, 102.6, 102.6, 0.4881, -0.1086, -5.428, 24.4036, 24.4036
112.02, (700.562,-16.926), 117.4165, 100.0, 117.41648492511335, 112.02, 112.02, 0.4635, -0.1875, -9.3733, 23.1763, 23.1763
122.28, (699.746,-15.324), 127.6765, 100.0, 126.47647029726265, 120.06, 120.06, 0.4282, -0.2581, -12.9059, 21.4112, 21.4112
131.04, (698.576,-13.705), 136.4365, 100.0, 135.71645672197215, 129.24, 129.24, 0.3812, -0.3235, -16.1764, 19.0611, 19.0611
132.9, (697.275,-12.187), 138.2964, 100.0, 137.87643755315938, 131.4, 131.4, 0.3688, -0.3377, -16.8833, 18.4378, 18.4378
134.16, (695.838,-10.797), 139.5564, 100.0, 139.55641880978246, 135.48, 135.48, 0.3587, -0.3483, -17.4166, 17.9349, 17.9349
124.32, (694.586,-9.24), 129.7164, 100.0, 129.71640195107867, 125.4, 125.4, 0.413, -0.2819, -14.0954, 20.6475, 20.6475
114.42, (693.71,-7.67), 119.8164, 100.0, 120.47638638603193, 116.16, 116.16, 0.4529, -0.2119, -10.5971, 22.6429, 22.6429
120.84, (692.829,-5.876), 126.2364, 100.0, 125.8763743750336, 119.34, 119.34, 0.4309, -0.2536, -12.6809, 21.5452, 21.5452
127.26, (691.724,-4.211), 132.6564, 100.0, 132.65635823023413, 126.24, 126.24, 0.3979, -0.3027, -15.1358, 19.8974, 19.8974
127.8, (690.557,-2.841), 133.1963, 100.0, 134.15634348793483, 129.84, 129.84, 0.3899, -0.313, -15.6515, 19.4944, 19.4944
126.84, (689.409,-1.204), 132.2363, 100.0, 131.5163306556419, 125.1, 125.1, 0.4039, -0.2947, -14.737, 20.1946, 20.1946
129.48, (688.111,0.316), 134.8763, 100.0, 135.53631575216707, 131.1, 131.1, 0.3822, -0.3223, -16.1164, 19.1118, 19.1118
119.4, (686.983,1.965), 124.7963, 100.0, 125.15629924988559, 120.84, 120.84, 0.4341, -0.2482, -12.4092, 21.7028, 21.7028
115.38, (686.135,3.774), 120.7763, 100.0, 120.77628436920577, 114.36, 114.36, 0.4517, -0.2143, -10.7155, 22.5871, 22.5871
125.64, (685.219,5.322), 131.0363, 100.0, 130.25626869781632, 123.84, 123.84, 0.4103, -0.2858, -14.2893, 20.5138, 20.5138
118.74, (684.108,6.983), 124.1363, 100.0, 124.91625531920518, 120.66, 120.66, 0.4351, -0.2464, -12.3182, 21.7546, 21.7546
109.56, (683.28,8.801), 114.9562, 100.0, 115.31623748638913, 111, 111, 0.4701, -0.1704, -8.5177, 23.5042, 23.5042
99.96, (682.783,10.735), 105.3562, 100.0, 105.35621389068785, 101.1, 101.1, 0.4925, -0.0865, -4.324, 24.6232, 24.6232
89.46, (682.636,12.527), 94.8562, 100.0, 95.93620148321052, 91.68, 91.68, 0.5, -0.0047, -0.2356, 24.9989, 24.9989
92.64, (682.675,14.526), 98.0362, 100.0, 97.67618159464756, 91.14, 91.14, 0.4996, -0.0199, -0.9946, 24.9802, 24.9802
102.66, (682.401,16.504), 108.0562, 100.0, 108.05616535117562, 101.28, 101.28, 0.4878, -0.1096, -5.4791, 24.3922, 24.3922
100.56, (681.96,18.249), 105.9562, 100.0, 106.67615331132585, 102.42, 102.42, 0.4903, -0.0978, -4.8901, 24.5171, 24.5171
90.54, (681.759,20.236), 95.9361, 100.0, 96.71613684218165, 91.98, 91.98, 0.4999, -0.0115, -0.5759, 24.9934, 24.9934
80.58, (681.912,22.227), 86.3961, 100.0, 87.1161269000085, 82.02, 82.02, 0.4942, 0.0756, 3.7815, 24.7123, 24.7123
88.62, (682.13,24.213), 94.4361, 100.0, 94.1361082732512, 87.24, 87.24, 0.4998, 0.0147, 0.7329, 24.9893, 24.9893
88.8, (682.21,26.011), 94.6161, 100.0, 93.89609563776546, 87.06, 87.06, 0.4997, 0.0168, 0.8376, 24.986, 24.986
98.94, (682.085,28.004), 104.7561, 100.0, 104.03607942352126, 97.2, 97.2, 0.4949, -0.0715, -3.5744, 24.7432, 24.7432
108.48, (681.606,29.943), 114.2961, 100.0, 114.29606507151215, 107.46, 107.46, 0.4742, -0.1585, -7.9243, 23.7109, 23.7109
113.4, (680.901,31.598), 119.2161, 100.0, 120.35605248377628, 115.62, 115.62, 0.4548, -0.2077, -10.3832, 22.7418, 22.7418
108.36, (680.243,33.485), 114.176, 100.0, 113.51604125552723, 106.62, 106.62, 0.4763, -0.152, -7.6008, 23.8165, 23.8165
113.58, (679.469,35.327), 119.396, 100.0, 119.81602116239554, 115.14, 115.14, 0.4568, -0.2034, -10.1684, 22.8386, 22.8386
123.6, (678.507,37.078), 129.416, 100.0, 129.41600837745796, 122.52, 122.52, 0.4165, -0.2767, -13.8348, 20.823, 20.823
115.68, (677.636,38.651), 121.496, 100.0, 120.7759909215898, 115.74, 115.74, 0.4533, -0.211, -10.5496, 22.6651, 22.6651
125.82, (676.622,40.372), 131.636, 100.0, 130.97597321183335, 124.14, 124.14, 0.4088, -0.2879, -14.3965, 20.4387, 20.4387
123.12, (675.426,41.973), 128.936, 100.0, 129.2359611346111, 124.8, 124.8, 0.4173, -0.2754, -13.7693, 20.8664, 20.8664
125.28, (674.366,43.668), 131.0959, 100.0, 131.09594630675159, 124.32, 124.32, 0.4082, -0.2888, -14.4393, 20.4085, 20.4085
114.9, (673.366,45.396), 120.7159, 100.0, 121.07593164810277, 116.34, 116.34, 0.4522, -0.2134, -10.6682, 22.6095, 22.6095
105.06, (672.682,47.273), 110.8759, 100.0, 111.23591595423477, 106.5, 106.5, 0.482, -0.1329, -6.6473, 24.1001, 24.1001
95.16, (672.366,49.043), 100.9759, 100.0, 101.63590148222684, 97.14, 97.14, 0.4974, -0.0507, -2.5351, 24.8711, 24.8711
86.28, (672.346,51.041), 92.0959, 100.0, 92.0358831691168, 87, 87, 0.4989, 0.033, 1.6481, 24.9456, 24.9456
96.06, (672.3,53.037), 101.8759, 100.0, 101.87586990492126, 94.98, 94.98, 0.4972, -0.0528, -2.6392, 24.8603, 24.8603
86.04, (672.272,55.034), 91.8559, 100.0, 91.85585380477868, 87.24, 87.24, 0.4988, 0.0345, 1.7265, 24.9403, 24.9403
91.8, (672.361,56.831), 97.6158, 100.0, 96.89584003216049, 90, 90, 0.4999, -0.0094, -0.4712, 24.9956, 24.9956
98.64, (672.2,58.823), 104.4558, 100.0, 104.15582417617243, 97.26, 97.26, 0.4947, -0.0725, -3.6262, 24.7356, 24.7356
108.84, (671.72,60.762), 114.6558, 100.0, 114.35580945612034, 107.58, 107.58, 0.4741, -0.159, -7.9492, 23.7025, 23.7025
107.58, (671.011,62.632), 113.3958, 100.0, 113.81578833800019, 108.84, 108.84, 0.4755, -0.1545, -7.7254, 23.7764, 23.7764
97.62, (670.616,64.386), 103.4358, 100.0, 104.15577376645824, 99.78, 99.78, 0.4947, -0.0725, -3.6262, 24.7356, 24.7356
98.16, (670.429,66.376), 103.9758, 100.0, 103.25575640137077, 96.3, 96.3, 0.4958, -0.0647, -3.2372, 24.7895, 24.7895
108, (669.977,68.322), 113.8157, 100.0, 113.51574018771609, 106.56, 106.56, 0.4763, -0.152, -7.6008, 23.8165, 23.8165
108.42, (669.27,70.192), 114.2357, 100.0, 114.23572697595637, 109.44, 109.44, 0.4744, -0.158, -7.8995, 23.7191, 23.7191
98.34, (668.826,72.139), 104.1557, 100.0, 104.15570840616626, 99.42, 99.42, 0.4947, -0.0725, -3.6262, 24.7356, 24.7356
88.5, (668.712,73.934), 94.3157, 100.0, 95.15569525837304, 90.42, 90.42, 0.5, 0.0058, 0.288, 24.9983, 24.9983
86.28, (668.881,75.926), 92.0957, 100.0, 91.31567796415746, 84.42, 84.42, 0.4985, 0.0392, 1.9615, 24.9229, 24.9229
96.18, (668.846,77.922), 101.9957, 100.0, 101.63566124050675, 94.68, 94.68, 0.4974, -0.0507, -2.5351, 24.8711, 24.8711
106.5, (668.453,79.881), 112.3156, 100.0, 111.59564067915122, 105.06, 105.06, 0.4812, -0.136, -6.7986, 24.0578, 24.0578
109.68, (667.757,81.755), 115.4956, 100.0, 115.85562827592393, 111.18, 111.18, 0.4697, -0.1713, -8.5669, 23.4863, 23.4863
99.42, (667.298,83.493), 105.2356, 100.0, 106.31560995747009, 101.64, 101.64, 0.4916, -0.0911, -4.5559, 24.5814, 24.5814
89.64, (667.128,85.483), 95.4556, 100.0, 95.81559370078665, 91.44, 91.44, 0.5, 0, 0, 25, 25
79.44, (667.319,87.471), 85.2556, 100.0, 85.615576144686, 80.94, 80.94, 0.4921, 0.0885, 4.4271, 24.6049, 24.6049
69.3, (667.867,89.392), 75.1156, 100.0, 75.11556392468599, 70.38, 70.38, 0.4677, 0.1767, 8.8369, 23.3861, 23.3861
59.4, (668.65,91.011), 65.2155, 100.0, 65.93554602068967, 61.2, 61.2, 0.4335, 0.2491, 12.4546, 21.6768, 21.6768
49.02, (669.812,92.635), 54.8355, 100.0, 55.61553015451142, 50.88, 50.88, 0.3819, 0.3227, 16.1364, 19.0949, 19.0949
38.82, (671.242,94.029), 44.6355, 100.0, 45.295514511602825, 40.56, 40.56, 0.3179, 0.3859, 19.2962, 15.8952, 15.8952
28.8, (672.899,95.145), 34.6155, 100.0, 35.33550123340203, 30.3, 30.3, 0.2464, 0.4351, 21.7546, 12.3182, 12.3182
21.12, (674.72,95.97), 26.9355, 100.0, 26.935483816396133, 22.2, 22.2, 0.1802, 0.4664, 23.3207, 9.0081, 9.0081
25.98, (676.574,96.715), 31.7955, 100.0, 31.79547024414911, 24.96, 24.96, 0.219, 0.4495, 22.4737, 10.9514, 10.9514
32.16, (678.153,97.578), 37.9755, 100.0, 37.1954524303982, 30.42, 30.42, 0.2604, 0.4269, 21.3433, 13.0178, 13.0178
34.86, (679.79,98.725), 40.6754, 100.0, 39.9554357981993, 34.5, 34.5, 0.2806, 0.4138, 20.6917, 14.0304, 14.0304
43.92, (681.328,100), 49.7354, 100.0, 49.435428723683664, 43.62, 43.62, 0.3449, 0.362, 18.0983, 17.2468, 17.2468
53.88, (682.632,101.513), 59.6954, 100.0, 59.695416303203, 52.74, 52.74, 0.4039, 0.2947, 14.737, 20.1946, 20.1946
47.34, (683.805,102.876), 53.1554, 100.0, 52.13539704842298, 46.02, 46.02, 0.3616, 0.3453, 17.2658, 18.0802, 18.0802
54.9, (685.037,104.449), 60.7154, 100.0, 61.43538183493741, 55.56, 55.56, 0.4127, 0.2823, 14.117, 20.6328, 20.6328
61.02, (686.143,106.113), 66.8354, 100.0, 66.47536655353574, 59.58, 59.58, 0.4359, 0.245, 12.2498, 21.7932, 21.7932
51.84, (687.126,107.618), 57.6554, 100.0, 58.49535136862466, 53.76, 53.76, 0.3976, 0.3031, 15.1567, 19.8815, 19.8815
59.94, (688.279,109.249), 65.7553, 100.0, 64.97533226945488, 58.02, 58.02, 0.4293, 0.2563, 12.8161, 21.4651, 21.4651
62.94, (689.272,110.985), 68.7553, 100.0, 68.33531750995625, 61.8, 61.8, 0.4436, 0.2307, 11.536, 22.1793, 22.1793
63.54, (690.006,112.628), 69.3553, 100.0, 70.19530341632536, 65.52, 65.52, 0.4508, 0.2162, 10.81, 22.542, 22.542
70.14, (690.843,114.443), 75.9553, 100.0, 75.17528613692372, 68.64, 68.64, 0.4679, 0.1762, 8.8124, 23.3953, 23.3953
66.96, (691.567,116.305), 72.7753, 100.0, 72.41526927080521, 65.4, 65.4, 0.4589, 0.1986, 9.9287, 22.9439, 22.9439
74.1, (692.127,118.014), 79.9152, 100.0, 80.99524890260444, 75.12, 75.12, 0.4834, 0.1279, 6.3946, 24.1684, 24.1684
76.26, (692.719,119.923), 82.0752, 100.0, 81.35524004560514, 74.46, 74.46, 0.4842, 0.1249, 6.2426, 24.2081, 24.2081
86.46, (693.017,121.898), 92.2752, 100.0, 91.91522459154609, 84.96, 84.96, 0.4988, 0.034, 1.7004, 24.9421, 24.9421
84.72, (693.09,123.896), 90.5352, 100.0, 90.83520833805427, 85.74, 85.74, 0.4981, 0.0434, 2.1702, 24.9056, 24.9056
74.64, (693.408,125.666), 80.4552, 100.0, 81.4751945931459, 76.74, 76.74, 0.4844, 0.1238, 6.1919, 24.2211, 24.2211
76.14, (693.995,127.577), 81.9552, 100.0, 81.53517823908474, 74.28, 74.28, 0.4846, 0.1233, 6.1665, 24.2275, 24.2275
85.2, (694.315,129.549), 91.0152, 100.0, 90.65516845795119, 83.7, 83.7, 0.498, 0.045, 2.2484, 24.8987, 24.8987
93.84, (694.332,131.348), 99.6552, 100.0, 98.57515683312994, 91.74, 91.74, 0.4994, -0.0241, -1.2038, 24.971, 24.971
103.8, (694.042,133.324), 109.6151, 100.0, 108.83514062225004, 101.82, 101.82, 0.4871, -0.1126, -5.6323, 24.3573, 24.3573
96.6, (693.633,135.28), 102.4151, 100.0, 103.55512302484911, 98.52, 98.52, 0.4954, -0.0673, -3.3669, 24.7722, 24.7722
98.28, (693.351,137.259), 104.0951, 100.0, 104.09510534139397, 99.42, 99.42, 0.4948, -0.072, -3.6003, 24.7394, 24.7394
87.9, (693.254,139.055), 93.7151, 100.0, 94.55508774589104, 90.18, 90.18, 0.4999, 0.011, 0.5497, 24.994, 24.994
78.48, (693.482,141.039), 84.2951, 100.0, 84.595074570003, 80.16, 80.16, 0.4904, 0.0973, 4.8644, 24.5222, 24.5222
79.44, (693.955,142.982), 85.2551, 100.0, 84.53505726194169, 77.88, 77.88, 0.4903, 0.0978, 4.8901, 24.5171, 24.5171
81.54, (694.235,144.962), 87.355, 100.0, 86.93503860036377, 80.4, 80.4, 0.494, 0.0772, 3.8591, 24.7003, 24.7003
89.88, (694.343,146.956), 95.695, 100.0, 96.11502679192904, 90.72, 90.72, 0.5, -0.0026, -0.1309, 24.9997, 24.9997
99.6, (694.173,148.946), 105.415, 100.0, 105.41501452601075, 98.52, 98.52, 0.493, -0.0834, -4.1692, 24.6499, 24.6499
109.5, (693.715,150.685), 115.315, 100.0, 114.95499506034037, 107.94, 107.94, 0.4724, -0.1639, -8.1969, 23.618, 23.618
119.22, (692.89,152.505), 125.035, 100.0, 124.6749792371583, 117.72, 117.72, 0.4379, -0.2413, -12.0668, 21.895, 21.895
129.54, (691.758,154.15), 135.355, 100.0, 134.99496032809841, 128.4, 128.4, 0.3876, -0.3159, -15.794, 19.3791, 19.3791
123.78, (690.523,155.721), 129.5949, 100.0, 129.95494147095513, 124.98, 124.98, 0.4138, -0.2806, -14.0304, 20.6917, 20.6917
114, (689.573,157.478), 119.8149, 100.0, 119.81492462146014, 114.78, 114.78, 0.4568, -0.2034, -10.1684, 22.8386, 22.8386
103.98, (688.996,159.181), 109.7949, 100.0, 110.51491225195616, 105.78, 105.78, 0.4836, -0.1269, -6.3439, 24.1817, 24.1817
93.9, (688.682,161.154), 99.7149, 100.0, 100.43489944860923, 95.4, 95.4, 0.4984, -0.0403, -2.0137, 24.9188, 24.9188
96.42, (688.583,163.15), 102.2349, 100.0, 101.51487893265154, 94.98, 94.98, 0.4975, -0.0497, -2.483, 24.8764, 24.8764
106.56, (688.185,165.108), 112.3749, 100.0, 111.95486018503394, 105, 105, 0.4803, -0.139, -6.9496, 24.0146, 24.0146
104.64, (687.573,167.01), 110.4548, 100.0, 110.45484507757553, 105.72, 105.72, 0.4838, -0.1264, -6.3186, 24.1883, 24.1883
94.86, (687.279,168.784), 100.6748, 100.0, 101.39482903463909, 96.36, 96.36, 0.4976, -0.0486, -2.4309, 24.8815, 24.8815
94.92, (687.198,170.782), 100.7348, 100.0, 100.01481638166219, 93.48, 93.48, 0.4987, -0.0366, -1.831, 24.9329, 24.9329
95.52, (686.937,172.764), 101.3348, 100.0, 101.33479658111561, 96.66, 96.66, 0.4977, -0.0481, -2.4048, 24.8841, 24.8841
93.6, (686.878,174.563), 99.4148, 100.0, 98.69477847109863, 91.44, 91.44, 0.4994, -0.0251, -1.2561, 24.9684, 24.9684
85.32, (686.857,176.56), 91.1348, 100.0, 91.91476764702905, 86.88, 86.88, 0.4988, 0.034, 1.7004, 24.9421, 24.9421
76.32, (687.174,178.532), 82.1347, 100.0, 82.134748974896, 77.34, 77.34, 0.4858, 0.1182, 5.9125, 24.2908, 24.2908
66, (687.759,180.233), 71.8147, 100.0, 72.89473861498308, 67.86, 67.86, 0.4605, 0.1947, 9.7361, 23.0262, 23.0262
56.28, (688.717,181.985), 62.0947, 100.0, 62.45472340618664, 57.6, 57.6, 0.4176, 0.2749, 13.7474, 20.8808, 20.8808
60.72, (689.821,183.651), 66.5347, 100.0, 66.17470316761211, 59.22, 59.22, 0.4346, 0.2473, 12.3637, 21.7287, 21.7287
69.66, (690.586,185.279), 75.4747, 100.0, 74.3946850378739, 67.56, 67.56, 0.4655, 0.1826, 9.13, 23.2732, 23.2732
67.5, (691.235,187.17), 73.3147, 100.0, 74.39467400198728, 69.3, 69.3, 0.4655, 0.1826, 9.13, 23.2732, 23.2732
70.2, (692.035,189.002), 76.0147, 100.0, 75.29465974083337, 68.46, 68.46, 0.4683, 0.1753, 8.7634, 23.4137, 23.4137
79.26, (692.57,190.927), 85.0746, 100.0, 84.71464188276857, 77.7, 77.7, 0.4906, 0.0963, 4.813, 24.5323, 24.5323
78.12, (692.882,192.902), 83.9346, 100.0, 83.93462333495408, 79.14, 79.14, 0.4893, 0.1029, 5.1466, 24.4645, 24.4645
85.8, (693.167,194.677), 91.6146, 100.0, 90.89460751100829, 83.94, 83.94, 0.4982, 0.0429, 2.1441, 24.9079, 24.9079
78.78, (693.386,196.663), 84.5946, 100.0, 85.3745912333897, 80.28, 80.28, 0.4917, 0.0906, 4.5301, 24.5861, 24.5861
75.84, (693.897,198.596), 81.6546, 100.0, 81.65457575490986, 74.64, 74.64, 0.4848, 0.1223, 6.1158, 24.2404, 24.2404
82.98, (694.197,200.37), 88.7946, 100.0, 88.01456430281614, 82.2, 82.2, 0.4954, 0.0679, 3.3929, 24.7687, 24.7687
93.3, (694.273,202.365), 99.1145, 100.0, 98.39454704104595, 91.5, 91.5, 0.4995, -0.0225, -1.1254, 24.9747, 24.9747
89.7, (694.145,204.36), 95.5145, 100.0, 96.17453327875886, 91.38, 91.38, 0.5, -0.0031, -0.1571, 24.9995, 24.9995
84.9, (694.305,206.353), 90.7145, 100.0, 90.29451711679951, 83.52, 83.52, 0.4977, 0.0481, 2.4048, 24.8841, 24.8841
90.36, (694.321,208.351), 96.1745, 100.0, 96.53449897103044, 91.44, 91.44, 0.5, -0.0063, -0.3142, 24.998, 24.998
91.68, (694.377,210.15), 97.4945, 100.0, 96.4744832555961, 89.52, 89.52, 0.5, -0.0058, -0.288, 24.9983, 24.9983
90.6, (694.25,212.145), 96.4145, 100.0, 97.49446682985973, 92.4, 92.4, 0.4998, -0.0147, -0.7329, 24.9893, 24.9893
80.76, (694.393,214.137), 86.5744, 100.0, 86.93444890615613, 82.2, 82.2, 0.494, 0.0772, 3.8591, 24.7003, 24.7003
78.84, (694.829,216.088), 84.6544, 100.0, 84.29442980989329, 77.4, 77.4, 0.4899, 0.0999, 4.9927, 24.4964, 24.4964
87.78, (695.05,218.074), 93.5944, 100.0, 93.29441633167417, 86.4, 86.4, 0.4995, 0.022, 1.0992, 24.9758, 24.9758
95.04, (694.977,219.872), 100.8544, 100.0, 99.83439777495236, 94.08, 94.08, 0.4988, -0.0351, -1.7526, 24.9385, 24.9385
104.82, (694.64,221.84), 110.6344, 100.0, 110.27438404328416, 103.44, 103.44, 0.4842, -0.1249, -6.2426, 24.2081, 24.2081
115.02, (693.957,223.717), 120.8344, 100.0, 120.41437298486936, 113.58, 113.58, 0.4546, -0.2081, -10.407, 22.7309, 22.7309
121.74, (692.995,225.469), 127.5544, 100.0, 126.77435869923102, 119.88, 119.88, 0.4288, -0.2572, -12.861, 21.4382, 21.4382
126.54, (691.82,227.087), 132.3543, 100.0, 132.71433695924972, 127.92, 127.92, 0.3998, -0.3002, -15.0105, 19.9921, 19.9921
127.02, (690.688,228.735), 132.8343, 100.0, 132.8343208809333, 125.94, 125.94, 0.3992, -0.301, -15.0523, 19.9606, 19.9606
136.02, (689.493,230.079), 141.8343, 100.0, 141.05430461988922, 134.22, 134.22, 0.3521, -0.355, -17.7516, 17.6035, 17.6035
137.1, (687.982,231.387), 142.9143, 100.0, 143.63428646993918, 138.96, 138.96, 0.3357, -0.3705, -18.526, 16.7865, 16.7865
127.02, (686.646,232.872), 132.8343, 100.0, 133.19427285491977, 128.1, 128.1, 0.3973, -0.3035, -15.1775, 19.8657, 19.8657
119.82, (685.685,234.392), 125.6343, 100.0, 124.55426180742693, 119.46, 119.46, 0.4384, -0.2404, -12.0209, 21.9203, 21.9203
129.9, (684.552,236.037), 135.7142, 100.0, 134.99424066509414, 128.34, 128.34, 0.3876, -0.3159, -15.794, 19.3791, 19.3791
138.24, (683.143,237.453), 144.0542, 100.0, 144.41422476954372, 138.54, 138.54, 0.3307, -0.3751, -18.7528, 16.5328, 16.5328
139.14, (681.698,238.835), 144.9542, 100.0, 144.95420822776305, 138.06, 138.06, 0.3271, -0.3782, -18.9078, 16.3553, 16.3553
138.6, (680.287,239.951), 144.4142, 100.0, 145.1941939065207, 140.52, 140.52, 0.3255, -0.3795, -18.9761, 16.276, 16.276
129, (678.899,241.388), 134.8142, 100.0, 135.2341727597697, 130.56, 130.56, 0.3863, -0.3175, -15.875, 19.3128, 19.3128
118.62, (677.788,243.048), 124.4342, 100.0, 125.09415287141722, 120.06, 120.06, 0.4361, -0.2445, -12.227, 21.806, 21.806
126.9, (676.728,244.74), 132.7141, 100.0, 132.35413495275733, 125.52, 125.52, 0.4017, -0.2977, -14.8846, 20.086, 20.086
125.88, (675.594,246.138), 131.6941, 100.0, 132.47411879071586, 127.68, 127.68, 0.4011, -0.2985, -14.9266, 20.0548, 20.0548
115.62, (674.568,247.851), 121.4341, 100.0, 122.15410357440538, 117.42, 117.42, 0.4481, -0.2218, -11.0924, 22.4044, 22.4044
105.48, (673.865,249.721), 111.2941, 100.0, 111.65408804268189, 106.8, 106.8, 0.481, -0.1365, -6.8238, 24.0507, 24.0507
95.52, (673.536,251.489), 101.3341, 100.0, 102.11406923306257, 97.44, 97.44, 0.497, -0.0549, -2.7434, 24.849, 24.849
85.08, (673.512,253.486), 90.8941, 100.0, 91.97405207562635, 86.88, 86.88, 0.4989, 0.0335, 1.6743, 24.9439, 24.9439
75.24, (673.85,255.454), 81.054, 100.0, 81.35403199867815, 76.74, 76.74, 0.4842, 0.1249, 6.2426, 24.2081, 24.2081
65.28, (674.534,257.331), 71.094, 100.0, 71.09401380457017, 66.36, 66.36, 0.4542, 0.2091, 10.4546, 22.7091, 22.7091
55.02, (675.434,258.888), 60.834, 100.0, 61.673997267836455, 56.94, 56.94, 0.4138, 0.2806, 14.0304, 20.6917, 20.6917
44.88, (676.718,260.417), 50.694, 100.0, 51.11397997992649, 46.38, 46.38, 0.3554, 0.3517, 17.5849, 17.77, 17.77
47.4, (678.161,261.801), 53.214, 100.0, 52.85396896727477, 46.02, 46.02, 0.3659, 0.3407, 17.0372, 18.2957, 18.2957
52.98, (679.269,263.218), 58.794, 100.0, 59.93395889680816, 54.84, 54.84, 0.4051, 0.293, 14.6522, 20.2562, 20.2562
62.28, (680.357,264.893), 68.0939, 100.0, 67.3739453110573, 60.54, 60.54, 0.4397, 0.2381, 11.906, 21.9829, 21.9829
69.06, (681.139,266.513), 74.8739, 100.0, 73.73392866223188, 66.9, 66.9, 0.4633, 0.188, 9.3975, 23.1665, 23.1665
65.64, (681.866,268.375), 71.4539, 100.0, 70.67391365819088, 65.94, 65.94, 0.4526, 0.2124, 10.6208, 22.6318, 22.6318
74.22, (682.528,270.259), 80.0339, 100.0, 80.69389910695786, 74.46, 74.46, 0.4827, 0.1304, 6.521, 24.1345, 24.1345
64.2, (683.239,272.126), 70.0139, 100.0, 70.37388197119851, 65.34, 65.34, 0.4515, 0.2148, 10.7391, 22.5759, 22.5759
73.2, (683.911,273.793), 79.0139, 100.0, 77.87386519998613, 71.28, 71.28, 0.4757, 0.154, 7.7005, 23.7845, 23.7845
74.58, (684.393,275.734), 80.3938, 100.0, 80.69384553600354, 75.96, 75.96, 0.4827, 0.1304, 6.521, 24.1345, 24.1345
72.66, (685.039,277.626), 78.4738, 100.0, 78.11382364175005, 71.52, 71.52, 0.4763, 0.152, 7.6008, 23.8165, 23.8165
78.72, (685.438,279.379), 84.5338, 100.0, 85.25381021229803, 80.22, 80.22, 0.4915, 0.0916, 4.5816, 24.5766, 24.5766
68.7, (685.993,281.298), 74.5138, 100.0, 74.87378794488849, 70.2, 70.2, 0.467, 0.1787, 8.9348, 23.3489, 23.3489
58.56, (686.881,283.087), 64.3738, 100.0, 64.79377485948346, 60.06, 60.06, 0.4285, 0.2577, 12.8834, 21.4247, 21.4247
60.24, (687.977,284.759), 66.0538, 100.0, 65.63375938122533, 58.74, 58.74, 0.4322, 0.2514, 12.568, 21.6113, 21.6113
69.24, (688.828,286.567), 75.0537, 100.0, 74.69374361096801, 67.8, 67.8, 0.4664, 0.1802, 9.0081, 23.3207, 23.3207
70.26, (689.375,288.281), 76.0737, 100.0, 76.73372835974912, 72.06, 72.06, 0.4725, 0.1634, 8.1722, 23.6266, 23.6266
78, (689.96,290.191), 83.8137, 100.0, 83.09371733984989, 76.5, 76.5, 0.4877, 0.1101, 5.5047, 24.3864, 24.3864
88.2, (690.201,292.174), 94.0137, 100.0, 93.59369926119625, 86.64, 86.64, 0.4996, 0.0194, 0.9684, 24.9812, 24.9812
98.04, (690.119,293.97), 103.8537, 100.0, 102.23368504749772, 95.76, 95.76, 0.4969, -0.0559, -2.7954, 24.8432, 24.8432
92.46, (689.864,295.953), 98.2737, 100.0, 99.29367130429345, 94.62, 94.62, 0.4991, -0.0304, -1.5175, 24.9539, 24.9539
82.8, (689.938,297.949), 88.6137, 100.0, 89.03365288282235, 84.3, 84.3, 0.4965, 0.059, 2.9514, 24.8252, 24.8252
72.96, (690.353,299.902), 78.7736, 100.0, 79.19363506882114, 74.46, 74.46, 0.4791, 0.143, 7.1506, 23.9556, 23.9556
78.84, (690.895,301.826), 84.6536, 100.0, 84.35361711161593, 77.46, 77.46, 0.49, 0.0993, 4.9671, 24.5016, 24.5016
87.9, (691.127,303.81), 93.7136, 100.0, 93.7136038771405, 86.88, 86.88, 0.4997, 0.0183, 0.9161, 24.9832, 24.9832
93.78, (691.112,305.609), 99.5936, 100.0, 98.81359204917929, 91.98, 91.98, 0.4993, -0.0262, -1.3084, 24.9657, 24.9657
103.92, (690.808,307.583), 109.7336, 100.0, 109.01357484184663, 102.42, 102.42, 0.4868, -0.1142, -5.7088, 24.3395, 24.3395
113.82, (690.158,309.472), 119.6336, 100.0, 119.27355651539881, 112.74, 112.74, 0.4587, -0.1991, -9.9527, 22.9335, 22.9335
115.74, (689.241,311.248), 121.5535, 100.0, 121.97354321940978, 117.3, 117.3, 0.4488, -0.2204, -11.022, 22.4392, 22.4392
115.8, (688.535,312.904), 121.6135, 100.0, 120.65352704129538, 113.7, 113.7, 0.4537, -0.21, -10.5021, 22.6871, 22.6871
124.74, (687.534,314.633), 130.5535, 100.0, 129.89351051143376, 123, 123, 0.4141, -0.2802, -14.0087, 20.7064, 20.7064
127.62, (686.296,316.203), 133.4335, 100.0, 133.07349438981896, 128.64, 128.64, 0.3979, -0.3027, -15.1358, 19.8974, 19.8974
137.34, (684.939,317.668), 143.1535, 100.0, 143.1534806195469, 136.62, 136.62, 0.3388, -0.3677, -18.3847, 16.9412, 16.9412
146.7, (683.529,318.784), 152.5135, 100.0, 151.8534647834008, 144.72, 144.72, 0.2793, -0.4147, -20.7357, 13.9653, 13.9653
155.58, (681.79,319.767), 161.3934, 100.0, 161.0334417408609, 154.08, 154.08, 0.2096, -0.454, -22.6981, 10.4784, 10.4784
165, (679.911,320.444), 170.8134, 100.0, 170.51342727793826, 163.62, 163.62, 0.1319, -0.4823, -24.1139, 6.5968, 6.5968
173.88, (678.145,320.785), 179.6934, 100.0, 178.9734148666922, 172.2, 172.2, 0.0595, -0.4964, -24.8221, 2.9774, 2.9774
183.18, (676.148,320.854), 188.9934, 100.0, 188.33339952285945, -178.8, -178.8, -0.022, -0.4995, -24.9758, -1.0992, -1.0992
192.12, (674.167,320.596), 197.9334, 100.0, 197.57337765664624, -169.32, -169.32, -0.1019, -0.4895, -24.4752, -5.0953, -5.0953
200.88, (672.252,320.025), 206.6934, 100.0, 206.6933607846883, -160.26, -160.26, -0.1782, -0.4672, -23.3582, -8.9103, -8.9103
209.88, (670.455,319.151), 215.6934, 100.0, 215.69335099947642, -151.26, -151.26, -0.2491, -0.4335, -21.6768, -12.4546, -12.4546
218.94, (668.977,318.126), 224.7533, 100.0, 224.033336753624, -142.8, -142.8, -0.3093, -0.3928, -19.641, -15.4671, -15.4671
228.24, (667.531,316.747), 234.0533, 100.0, 233.39331831745048, -133.44, -133.44, -0.3691, -0.3373, -16.864, -18.4555, -18.4555
237.12, (666.329,315.152), 242.9333, 100.0, 242.51330061372317, -124.44, -124.44, -0.4179, -0.2745, -13.7256, -20.8952, -20.8952
246.06, (665.48,313.566), 251.8733, 100.0, 250.73328906371552, -115.08, -115.08, -0.4529, -0.2119, -10.5971, -22.6429, -22.6429
255.06, (664.818,311.682), 260.8733, 100.0, 260.15326901489493, -105.66, -105.66, -0.4814, -0.135, -6.7482, -24.072, -24.072
264, (664.474,309.714), 269.8132, 100.0, 270.1732494305243, -96.3, -96.3, -0.4976, -0.0491, -2.4569, -24.879, -24.879
274.2, (664.456,307.717), 280.0132, 100.0, 280.0132305629748, -86.88, -86.88, -0.4987, 0.0366, 1.831, -24.9329, -24.9329
283.62, (664.763,305.743), 289.4332, 100.0, 289.43321520229273, -77.46, -77.46, -0.4859, 0.1177, 5.887, -24.297, -24.297
292.32, (665.303,304.028), 298.1332, 100.0, 297.353200496596, -69.48, -69.48, -0.4651, 0.1836, 9.1788, -23.254, -23.254
293.46, (666.042,302.17), 299.2732, 100.0, 298.55318373579763, -68.28, -68.28, -0.4611, 0.1933, 9.6638, -23.0567, -23.0567
296.04, (666.948,300.388), 301.8532, 100.0, 301.8531643022531, -63.12, -63.12, -0.4492, 0.2195, 10.975, -22.4622, -22.4622
304.62, (667.835,298.825), 310.4331, 100.0, 309.7131485504353, -57.18, -57.18, -0.415, 0.2789, 13.9436, -20.7503, -20.7503
311.46, (669.05,297.238), 317.2731, 100.0, 317.2731307717308, -49.26, -49.26, -0.3747, 0.331, 16.5524, -18.7355, -18.7355
302.16, (670.235,295.63), 307.9731, 100.0, 307.61311470970077, -57, -57, -0.4249, 0.2635, 13.1739, -21.2473, -21.2473
308.34, (671.429,294.028), 314.1531, 100.0, 314.45309841055854, -50.4, -50.4, -0.3905, 0.3122, 15.6106, -19.5271, -19.5271
301.44, (672.425,292.53), 307.2531, 100.0, 306.11308017869027, -59.7, -59.7, -0.4317, 0.2523, 12.6132, -21.5849, -21.5849
299.34, (673.509,290.851), 305.1531, 100.0, 305.87305722059267, -58.8, -58.8, -0.4328, 0.2505, 12.5227, -21.6375, -21.6375
289.38, (674.336,289.033), 295.193, 100.0, 295.4930436387393, -69.24, -69.24, -0.4708, 0.1684, 8.4192, -23.5397, -23.5397
283.86, (674.847,287.101), 289.673, 100.0, 289.673026576944, -77.58, -77.58, -0.4854, 0.1198, 5.9888, -24.2721, -24.2721
289.86, (675.484,285.207), 295.673, 100.0, 295.6730121571701, -69.06, -69.06, -0.4703, 0.1699, 8.4931, -23.5131, -23.5131
288.18, (675.991,283.48), 293.993, 100.0, 293.21299421825245, -73.62, -73.62, -0.4771, 0.1495, 7.476, -23.856, -23.856
298.08, (676.773,281.643), 303.893, 100.0, 303.5329795197052, -63, -63, -0.4426, 0.2326, 11.6288, -22.1308, -22.1308
291.24, (677.643,279.844), 297.053, 100.0, 297.412962375283, -67.68, -67.68, -0.4649, 0.1841, 9.2031, -23.2444, -23.2444
297.48, (678.332,278.183), 303.2929, 100.0, 302.15294802668546, -64.8, -64.8, -0.4481, 0.2218, 11.0924, -22.4044, -22.4044
307.62, (679.392,276.49), 313.4329, 100.0, 312.6529333053429, -54.12, -54.12, -0.4002, 0.2998, 14.9896, -20.0078, -20.0078
314.64, (680.729,275.005), 320.4529, 100.0, 320.7529161652105, -44.34, -44.34, -0.3539, 0.3532, 17.6591, -17.6962, -17.6962
304.92, (681.992,273.458), 310.7329, 100.0, 310.37290352200057, -54.36, -54.36, -0.4118, 0.2836, 14.1817, -20.5883, -20.5883
314.82, (683.28,271.931), 320.6329, 100.0, 320.6328881831791, -46.26, -46.26, -0.3547, 0.3524, 17.622, -17.7331, -17.7331
323.58, (684.63,270.745), 329.3929, 100.0, 328.7928775384707, -38.4, -38.4, -0.301, 0.3992, 19.9606, -15.0523, -15.0523
315.78, (686.178,269.482), 321.5929, 100.0, 322.01285367658977, -42.72, -42.72, -0.3461, 0.3609, 18.044, -17.3036, -17.3036
305.88, (687.487,267.972), 311.6928, 100.0, 312.052835248028, -52.68, -52.68, -0.4033, 0.2956, 14.7792, -20.1637, -20.1637
296.16, (688.514,266.259), 301.9728, 100.0, 302.3928156852825, -62.76, -62.76, -0.4472, 0.2237, 11.1862, -22.3578, -22.3578
286.2, (689.168,264.585), 292.0128, 100.0, 293.0328054658372, -71.64, -71.64, -0.4776, 0.148, 7.401, -23.8794, -23.8794
276.24, (689.569,262.628), 282.0528, 100.0, 282.7727908766518, -81.96, -81.96, -0.4963, 0.0606, 3.0294, -24.8158, -24.8158
279.36, (689.765,260.638), 285.1728, 100.0, 284.8727798944584, -82.02, -82.02, -0.4938, 0.0787, 3.9367, -24.6881, -24.6881
289.26, (690.272,258.706), 295.0728, 100.0, 295.07276397650077, -71.52, -71.52, -0.472, 0.1649, 8.2464, -23.6008, -23.6008
287.76, (690.92,257.028), 293.5727, 100.0, 294.2927452225606, -70.32, -70.32, -0.4742, 0.1585, 7.9243, -23.7109, -23.7109
277.56, (691.361,255.08), 283.3727, 100.0, 284.0327293970553, -80.7, -80.7, -0.4949, 0.0715, 3.5744, -24.7432, -24.7432
278.28, (691.527,253.288), 284.0927, 100.0, 283.0727143219172, -83.88, -83.88, -0.496, 0.0632, 3.1593, -24.7996, -24.7996
288.54, (691.977,251.342), 294.3527, 100.0, 293.63269626242896, -73.56, -73.56, -0.476, 0.153, 7.6507, -23.8006, -23.8006
298.38, (692.775,249.511), 304.1927, 100.0, 304.1926753753404, -62.76, -62.76, -0.4399, 0.2377, 11.8829, -21.9954, -21.9954
290.04, (693.537,247.883), 295.8527, 100.0, 296.87265625009985, -68.22, -68.22, -0.4666, 0.1797, 8.9836, -23.3301, -23.3301
280.38, (694.072,245.958), 286.1926, 100.0, 286.9726365540286, -77.88, -77.88, -0.4905, 0.0968, 4.8387, -24.5273, -24.5273
270.48, (694.26,243.97), 276.2926, 100.0, 276.5926213187214, -88.02, -88.02, -0.5, 0.0068, 0.3403, -24.9977, -24.9977
260.52, (694.099,241.979), 266.3326, 100.0, 266.3326082926601, -98.34, -98.34, -0.4932, -0.0824, -4.1176, -24.6586, -24.6586
262.8, (693.766,240.211), 268.6126, 100.0, 268.1925941710912, -98.64, -98.64, -0.4956, -0.0663, -3.3151, -24.7792, -24.7792
272.1, (693.68,238.215), 277.9126, 100.0, 277.4925830011398, -89.04, -89.04, -0.4998, 0.0147, 0.7329, -24.9893, -24.9893
272.4, (693.835,236.422), 278.2126, 100.0, 279.2325671591764, -85.56, -85.56, -0.4991, 0.0298, 1.4914, -24.9555, -24.9555
262.26, (693.759,234.426), 268.0726, 100.0, 269.0925533993899, -95.58, -95.58, -0.4966, -0.0585, -2.9254, -24.8282, -24.8282
261.42, (693.395,232.46), 267.2325, 100.0, 266.8725347446126, -100.08, -100.08, -0.4939, -0.0777, -3.885, -24.6963, -24.6963
271.56, (693.277,230.466), 277.3725, 100.0, 277.012520313464, -89.76, -89.76, -0.4999, 0.0105, 0.5236, -24.9945, -24.9945
280.02, (693.491,228.479), 285.8325, 100.0, 285.4124972647392, -81.54, -81.54, -0.493, 0.0834, 4.1692, -24.6499, -24.6499
283.74, (693.932,226.735), 289.5525, 100.0, 290.9924789097933, -73.86, -73.86, -0.4826, 0.1309, 6.5463, -24.1277, -24.1277
274.32, (694.259,224.764), 280.1325, 100.0, 280.85245729532124, -83.88, -83.88, -0.4981, 0.0439, 2.1963, -24.9033, -24.9033
264.6, (694.239,222.767), 270.4124, 100.0, 270.77244003425056, -94.32, -94.32, -0.4981, -0.0439, -2.1963, -24.9033, -24.9033
254.34, (693.864,220.805), 260.1524, 100.0, 260.51242238934066, -104.52, -104.52, -0.4823, -0.1319, -6.5968, -24.1139, -24.1139
244.44, (693.149,218.94), 250.2524, 100.0, 250.2524040242624, -114.6, -114.6, -0.4511, -0.2157, -10.7864, -22.5533, -22.5533
234.48, (692.238,217.39), 240.2924, 100.0, 241.07239166889977, -123.66, -123.66, -0.4109, -0.2849, -14.2463, -20.5437, -20.5437
224.76, (690.953,215.861), 230.5724, 100.0, 231.29237800041807, -133.5, -133.5, -0.3565, -0.3506, -17.529, -17.8251, -17.8251
215.04, (689.425,214.574), 220.8524, 100.0, 221.51235968606582, -143.28, -143.28, -0.2918, -0.406, -20.3021, -14.5885, -14.5885
209.64, (687.762,213.465), 215.4523, 100.0, 215.81234483387763, -148.98, -148.98, -0.25, -0.433, -21.6506, -12.5, -12.5
213.06, (686.186,212.598), 218.8723, 100.0, 217.73232952194863, -149.1, -149.1, -0.2644, -0.4244, -21.2197, -13.2184, -13.2184
222.9, (684.609,211.373), 228.7123, 100.0, 228.3523120035462, -138.48, -138.48, -0.3381, -0.3684, -18.4201, -16.9026, -16.9026
232.92, (683.274,209.886), 238.7323, 100.0, 238.3122976784457, -128.58, -128.58, -0.3967, -0.3044, -15.219, -19.8338, -19.8338
228.12, (682.051,208.306), 233.9323, 100.0, 233.93227774039997, -130.86, -130.86, -0.3723, -0.3338, -16.6893, -18.6136, -18.6136
218.22, (680.739,207.076), 224.0323, 100.0, 224.81226220671192, -139.86, -139.86, -0.3147, -0.3886, -19.4286, -15.733, -15.733
228.42, (679.28,205.712), 234.2322, 100.0, 233.45224444565545, -133.5, -133.5, -0.3695, -0.3369, -16.8447, -18.4731, -18.4731
237.42, (678.063,204.128), 243.2322, 100.0, 242.81222796961467, -123.84, -123.84, -0.4193, -0.2723, -13.616, -20.9668, -20.9668
239.76, (676.977,202.45), 245.5722, 100.0, 245.57221025906549, -121.32, -121.32, -0.432, -0.2518, -12.5906, -21.5981, -21.5981
250.02, (676.14,200.636), 255.8322, 100.0, 255.47219514695777, -111.36, -111.36, -0.4688, -0.1738, -8.6898, -23.4412, -23.4412
259.32, (675.665,198.902), 265.1322, 100.0, 264.41217922843816, -102.48, -102.48, -0.4901, -0.0988, -4.9414, -24.5068, -24.5068
261.48, (675.417,196.918), 267.2922, 100.0, 267.65216485184345, -97.02, -97.02, -0.4949, -0.071, -3.5484, -24.7469, -24.7469
251.4, (674.943,194.978), 257.2121, 100.0, 257.57214561788913, -107.46, -107.46, -0.4749, -0.1565, -7.825, -23.7438, -23.7438
249.24, (674.193,193.124), 255.0521, 100.0, 255.05213341407014, -111.78, -111.78, -0.4675, -0.1772, -8.8614, -23.3768, -23.3768
257.94, (673.646,191.202), 263.7521, 100.0, 263.4521206598902, -103.2, -103.2, -0.4884, -0.107, -5.3513, -24.4205, -24.4205
265.74, (673.406,189.219), 271.5521, 100.0, 271.5521036649221, -93.54, -93.54, -0.4986, -0.0371, -1.8571, -24.9309, -24.9309
264.78, (673.174,187.434), 270.5921, 100.0, 269.87209064753586, -97.02, -97.02, -0.4973, -0.0517, -2.5872, -24.8658, -24.8658
265.92, (673.096,185.437), 271.7321, 100.0, 272.03207613843193, -92.76, -92.76, -0.4989, -0.033, -1.6481, -24.9456, -24.9456
274.86, (673.087,183.439), 280.6721, 100.0, 280.1920557394805, -86.7, -86.7, -0.4985, 0.0382, 1.9093, -24.927, -24.927
284.1, (673.402,181.467), 289.912, 100.0, 289.6120400041262, -77.64, -77.64, -0.4856, 0.1193, 5.9633, -24.2784, -24.2784
276.48, (673.797,179.509), 282.292, 100.0, 282.65202476830626, -82.02, -82.02, -0.4964, 0.0595, 2.9774, -24.8221, -24.8221
284.16, (674.083,177.733), 289.972, 100.0, 288.8920099034224, -77.76, -77.76, -0.487, 0.1132, 5.6578, -24.3514, -24.3514
292.56, (674.693,175.831), 298.372, 100.0, 298.01198998373815, -68.94, -68.94, -0.4629, 0.1889, 9.446, -23.1468, -23.1468
303, (675.625,174.064), 308.812, 100.0, 308.51197447415416, -58.32, -58.32, -0.4208, 0.2701, 13.506, -21.0378, -21.0378
298.5, (676.7,172.379), 304.312, 100.0, 304.3119552838779, -60.42, -60.42, -0.4394, 0.2386, 11.929, -21.9704, -21.9704
288.36, (677.418,170.731), 294.1719, 100.0, 295.3119394530331, -69.72, -69.72, -0.4713, 0.1669, 8.3452, -23.566, -23.566
278.76, (677.902,168.793), 284.5719, 100.0, 285.2319213724272, -79.5, -79.5, -0.4933, 0.0818, 4.0918, -24.6629, -24.6629
287.64, (678.332,166.843), 293.4519, 100.0, 292.7919099586414, -74.04, -74.04, -0.4782, 0.146, 7.3009, -23.9102, -23.9102
288.3, (678.907,164.928), 294.1119, 100.0, 294.47189204506907, -71.82, -71.82, -0.4737, 0.16, 7.9988, -23.6858, -23.6858
279.06, (679.358,162.982), 284.8719, 100.0, 284.87187121323933, -80.58, -80.58, -0.4938, 0.0787, 3.9367, -24.6881, -24.6881
288.9, (679.791,161.237), 294.7119, 100.0, 293.93185947089114, -72.84, -72.84, -0.4752, 0.1555, 7.7752, -23.7602, -23.7602
282.66, (680.386,159.329), 288.4718, 100.0, 289.07184490842604, -75.96, -75.96, -0.4867, 0.1147, 5.7343, -24.3335, -24.3335
273.12, (680.659,157.35), 278.9318, 100.0, 279.35183194643287, -85.8, -85.8, -0.499, 0.0309, 1.5436, -24.9523, -24.9523
263.52, (680.598,155.553), 269.3318, 100.0, 270.0518145287253, -95.04, -95.04, -0.4975, -0.0502, -2.509, -24.8738, -24.8738
263.76, (680.292,153.577), 269.5718, 100.0, 268.8518021115457, -98.04, -98.04, -0.4963, -0.0606, -3.0294, -24.8158, -24.8158
264.18, (680.168,151.582), 269.9918, 100.0, 270.35178828831715, -94.32, -94.32, -0.4977, -0.0476, -2.3788, -24.8866, -24.8866
265.5, (679.931,149.798), 271.3118, 100.0, 270.5917744210335, -96.3, -96.3, -0.4979, -0.0455, -2.2745, -24.8963, -24.8963
273.48, (679.913,147.799), 279.2918, 100.0, 278.9317571368825, -88.02, -88.02, -0.4993, 0.0272, 1.3607, -24.9629, -24.9629
283.5, (680.173,146.02), 289.3117, 100.0, 288.2317428704992, -78.6, -78.6, -0.4883, 0.1075, 5.3769, -24.4149, -24.4149
283.86, (680.729,144.1), 289.6717, 100.0, 290.5117292200793, -74.22, -74.22, -0.4836, 0.1269, 6.3439, -24.1817, -24.1817
274.2, (681.041,142.127), 280.0117, 100.0, 280.3717098888379, -84.3, -84.3, -0.4984, 0.0398, 1.9876, -24.9209, -24.9209
263.82, (681.006,140.329), 269.6317, 100.0, 270.4116969742775, -94.2, -94.2, -0.4978, -0.0471, -2.3527, -24.889, -24.889
262.68, (680.687,138.356), 268.4917, 100.0, 267.77168219314774, -99.06, -99.06, -0.4951, -0.0699, -3.4966, -24.7543, -24.7543
272.7, (680.609,136.36), 278.5117, 100.0, 278.1516640906522, -88.74, -88.74, -0.4996, 0.0204, 1.0207, -24.9792, -24.9792
274.38, (680.804,134.571), 280.1916, 100.0, 281.2716466282757, -83.46, -83.46, -0.4977, 0.0476, 2.3788, -24.8866, -24.8866
264.48, (680.796,132.574), 270.2916, 100.0, 270.95163185274106, -93.78, -93.78, -0.4982, -0.0424, -2.118, -24.9101, -24.9101
256.02, (680.435,130.609), 261.8316, 100.0, 261.1116178995159, -103.98, -103.98, -0.4836, -0.1269, -6.3439, -24.1817, -24.1817
265.26, (680.124,128.636), 271.0716, 100.0, 271.43160123020067, -95.4, -95.4, -0.4985, -0.0382, -1.9093, -24.927, -24.927
267.12, (679.914,126.648), 272.9316, 100.0, 272.57158677585954, -94.32, -94.32, -0.4992, -0.0283, -1.413, -24.96, -24.96
268.32, (679.898,124.848), 274.1316, 100.0, 273.2915723320557, -91.74, -91.74, -0.4995, -0.022, -1.0992, -24.9758, -24.9758
278.52, (680.006,122.854), 284.3316, 100.0, 283.6715566694843, -83.22, -83.22, -0.4953, 0.0684, 3.4188, -24.7651, -24.7651
288, (680.475,120.913), 293.8115, 100.0, 293.8115386011514, -72.72, -72.72, -0.4755, 0.1545, 7.7254, -23.7764, -23.7764
277.86, (680.919,118.965), 283.6715, 100.0, 283.9715214691891, -80.76, -80.76, -0.4949, 0.071, 3.5484, -24.7469, -24.7469
267.96, (681.016,117.17), 273.7715, 100.0, 274.97150477902676, -89.76, -89.76, -0.4999, -0.0073, -0.3665, -24.9973, -24.9973
277.74, (681.1,115.174), 283.5515, 100.0, 282.8914870812042, -84.06, -84.06, -0.4962, 0.0616, 3.0814, -24.8094, -24.8094
287.28, (681.541,113.226), 293.0915, 100.0, 292.73147249719875, -73.8, -73.8, -0.4784, 0.1455, 7.2759, -23.9178, -23.9178
292.38, (682.283,111.37), 298.1915, 100.0, 298.1914566469848, -66.54, -66.54, -0.4623, 0.1904, 9.5187, -23.117, -23.117
283.26, (682.822,109.655), 289.0714, 100.0, 289.851443905082, -75.24, -75.24, -0.4851, 0.1213, 6.065, -24.2532, -24.2532
273.12, (683.113,107.678), 278.9314, 100.0, 279.6514257535324, -85.14, -85.14, -0.4989, 0.0335, 1.6743, -24.9439, -24.9439
265.38, (683.049,105.682), 271.1914, 100.0, 270.8914073948801, -95.58, -95.58, -0.4982, -0.0429, -2.1441, -24.9079, -24.9079
275.7, (683.076,103.685), 281.5114, 100.0, 281.15139725642166, -85.68, -85.68, -0.4978, 0.0465, 2.3266, -24.8915, -24.8915
284.04, (683.403,101.917), 289.8514, 100.0, 290.57138357147704, -76.38, -76.38, -0.4835, 0.1274, 6.3693, -24.175, -24.175
274.08, (683.725,99.946), 279.8914, 100.0, 280.3113703821162, -84.42, -84.42, -0.4985, 0.0392, 1.9615, -24.9229, -24.9229
264.24, (683.697,97.948), 270.0514, 100.0, 270.4113533425197, -94.38, -94.38, -0.4978, -0.0471, -2.3527, -24.889, -24.889
257.88, (683.335,95.983), 263.6913, 100.0, 263.2713378471166, -103.56, -103.56, -0.4881, -0.1086, -5.428, -24.4036, -24.4036
264.72, (683.106,94.199), 270.5313, 100.0, 271.2513223439441, -93.84, -93.84, -0.4984, -0.0398, -1.9876, -24.9209, -24.9209
273.06, (683.047,92.203), 278.8713, 100.0, 278.8713074309486, -87.96, -87.96, -0.4993, 0.0267, 1.3345, -24.9644, -24.9644
267, (683.056,90.205), 272.8113, 100.0, 272.81129173301946, -93.48, -93.48, -0.4993, -0.0262, -1.3084, -24.9657, -24.9657
276, (683.139,88.209), 281.8113, 100.0, 282.2312733066015, -83.94, -83.94, -0.4969, 0.0559, 2.7954, -24.8432, -24.8432
270.24, (683.245,86.413), 276.0513, 100.0, 277.07125926001856, -87.96, -87.96, -0.4999, 0.011, 0.5497, -24.994, -24.994
260.58, (683.089,84.421), 266.3912, 100.0, 267.11124397185137, -97.68, -97.68, -0.4942, -0.0756, -3.7815, -24.7123, -24.7123
250.68, (682.592,82.487), 256.4912, 100.0, 256.85122621259165, -107.94, -107.94, -0.4729, -0.1625, -8.1227, -23.6436, -23.6436
240.96, (681.761,80.67), 246.7712, 100.0, 246.7712102784239, -117.96, -117.96, -0.4371, -0.2427, -12.1355, -21.857, -21.857
230.94, (680.752,79.182), 236.7512, 100.0, 237.53120214676002, -127.2, -127.2, -0.3925, -0.3098, -15.4876, -19.6248, -19.6248
225, (679.379,77.73), 230.8112, 100.0, 230.4511816160195, -136.5, -136.5, -0.3513, -0.3558, -17.7884, -17.5662, -17.5662
235.32, (678.102,76.194), 241.1312, 100.0, 240.77116806952984, -126.12, -126.12, -0.4094, -0.2871, -14.3537, -20.4688, -20.4688
245.58, (677.122,74.454), 251.3912, 100.0, 251.09115475193173, -115.86, -115.86, -0.4542, -0.2091, -10.4546, -22.7091, -22.7091
255.6, (676.523,72.759), 261.4111, 100.0, 260.6911427489024, -106.26, -106.26, -0.4827, -0.1304, -6.521, -24.1345, -24.1345
265.74, (676.17,70.59), 271.5511, 100.0, 271.55112534814964, -95.34, -95.34, -0.4986, -0.0371, -1.8571, -24.9309, -24.9309
275.82, (676.206,68.793), 281.6311, 100.0, 281.3311091309242, -85.92, -85.92, -0.4977, 0.0481, 2.4048, -24.8841, -24.8841
286.26, (676.581,66.831), 292.0711, 100.0, 291.3510943557195, -75.54, -75.54, -0.4817, 0.134, 6.6978, -24.0861, -24.0861
296.28, (677.308,64.971), 302.0911, 100.0, 301.7310760985014, -64.86, -64.86, -0.4497, 0.2186, 10.9279, -22.4851, -22.4851
306.18, (678.243,63.435), 311.9911, 100.0, 311.2110592001073, -55.44, -55.44, -0.4076, 0.2896, 14.482, -20.3782, -20.3782
316.02, (679.562,61.935), 321.831, 100.0, 321.4710438035562, -45.06, -45.06, -0.3495, 0.3576, 17.8801, -17.4729, -17.4729
308.04, (680.79,60.621), 313.851, 100.0, 314.5710276353411, -49.8, -49.8, -0.3899, 0.313, 15.6515, -19.4944, -19.4944
315.48, (682.088,59.103), 321.291, 100.0, 320.57100991585554, -45.96, -45.96, -0.355, 0.3521, 17.6035, -17.7516, -17.7516
307.62, (683.432,57.625), 313.431, 100.0, 313.4309934478312, -51.36, -51.36, -0.396, 0.3052, 15.2605, -19.8019, -19.8019
306.6, (684.554,56.218), 312.411, 100.0, 313.4909825431317, -51.24, -51.24, -0.3957, 0.3056, 15.2813, -19.7859, -19.7859
297.36, (685.618,54.527), 303.171, 100.0, 303.89096961672044, -60.84, -60.84, -0.4411, 0.2354, 11.7676, -22.0573, -22.0573
287.4, (686.375,52.679), 293.211, 100.0, 293.210956035778, -71.46, -71.46, -0.4771, 0.1495, 7.476, -23.856, -23.856
277.56, (686.757,50.922), 283.3709, 100.0, 284.09093689313903, -80.94, -80.94, -0.4948, 0.072, 3.6003, -24.7394, -24.7394
272.22, (686.872,48.927), 278.0309, 100.0, 277.2509231677009, -89.7, -89.7, -0.4998, 0.0126, 0.6283, -24.9921, -24.9921
282.24, (687.122,46.945), 288.0509, 100.0, 287.63090903423335, -79.2, -79.2, -0.4894, 0.1024, 5.1209, -24.4699, -24.4699
272.82, (687.387,44.966), 278.6309, 100.0, 278.63089072071057, -86.04, -86.04, -0.4994, 0.0246, 1.23, -24.9697, -24.9697
272.46, (687.537,43.173), 278.2709, 100.0, 278.99087469311064, -85.8, -85.8, -0.4992, 0.0277, 1.3868, -24.9615, -24.9615
271.56, (687.516,41.173), 277.3709, 100.0, 276.65085660359074, -90.24, -90.24, -0.4999, 0.0073, 0.3665, -24.9973, -24.9973
276.9, (687.722,39.186), 282.7108, 100.0, 283.1308409585116, -81.6, -81.6, -0.4959, 0.0637, 3.1853, -24.7963, -24.7963
266.82, (687.777,37.189), 272.6308, 100.0, 272.99082274254505, -92.04, -92.04, -0.4994, -0.0246, -1.23, -24.9697, -24.9697
256.98, (687.532,35.408), 262.7908, 100.0, 263.8108080089472, -100.86, -100.86, -0.4891, -0.104, -5.1978, -24.4537, -24.4537
249.24, (686.923,33.505), 255.0508, 100.0, 253.97079481578172, -111.48, -111.48, -0.4641, -0.186, -9.3004, -23.2057, -23.2057
246.9, (686.254,31.621), 252.7108, 100.0, 253.43077717085512, -111.66, -111.66, -0.4623, -0.1904, -9.5187, -23.117, -23.117
249, (685.426,29.802), 254.8108, 100.0, 254.45076363828008, -112.56, -112.56, -0.4657, -0.1821, -9.1057, -23.2828, -23.2828
254.82, (684.885,28.086), 260.6307, 100.0, 259.550746567045, -107.34, -107.34, -0.48, -0.14, -6.9999, -24, -24
260.88, (684.508,26.124), 266.6907, 100.0, 267.4107273850469, -97.26, -97.26, -0.4946, -0.073, -3.6521, -24.7318, -24.7318
250.92, (684.02,24.187), 256.7307, 100.0, 257.0907149315596, -108, -108, -0.4735, -0.1605, -8.0236, -23.6775, -23.6775
246.9, (683.308,22.535), 252.7107, 100.0, 251.69069671984585, -115.2, -115.2, -0.4563, -0.2043, -10.2162, -22.8173, -22.8173
248.28, (682.617,20.659), 254.0907, 100.0, 254.4506776642644, -110.4, -110.4, -0.4657, -0.1821, -9.1057, -23.2828, -23.2828
246.54, (681.771,18.848), 252.3507, 100.0, 252.35065696118107, -114.6, -114.6, -0.4587, -0.1991, -9.9527, -22.9335, -22.9335
256.86, (681.212,17.139), 262.6706, 100.0, 261.95064477208075, -105, -105, -0.4854, -0.1198, -5.9888, -24.2721, -24.2721
264.06, (680.916,15.163), 269.8706, 100.0, 270.59062456040294, -94.86, -94.86, -0.4979, -0.0455, -2.2745, -24.8963, -24.8963
253.68, (680.528,13.204), 259.4906, 100.0, 259.9106094707749, -104.88, -104.88, -0.4809, -0.137, -6.849, -24.0435, -24.0435
246, (679.878,11.528), 251.8106, 100.0, 250.7305924799856, -114.66, -114.66, -0.4529, -0.2119, -10.5971, -22.6429, -22.6429
255.78, (679.215,9.644), 261.5906, 100.0, 261.23056946978346, -105.66, -105.66, -0.4839, -0.1259, -6.2933, -24.1949, -24.1949
264.84, (678.897,7.672), 270.6506, 100.0, 271.01055248510943, -95.16, -95.16, -0.4982, -0.0418, -2.0919, -24.9123, -24.9123
254.82, (678.534,5.708), 260.6305, 100.0, 260.63053331450794, -104.04, -104.04, -0.4826, -0.1309, -6.5463, -24.1277, -24.1277
257.22, (678.022,3.983), 263.0305, 100.0, 262.3105190946513, -104.64, -104.64, -0.4862, -0.1167, -5.8361, -24.3092, -24.3092
266.52, (677.73,2.006), 272.3305, 100.0, 271.55050633074535, -95.34, -95.34, -0.4986, -0.0371, -1.8571, -24.9309, -24.9309
265.8, (677.678,0.008), 271.6105, 100.0, 271.91048728260284, -93.12, -93.12, -0.4988, -0.034, -1.7004, -24.9421, -24.9421
273, (677.627,-1.989), 278.8105, 100.0, 278.8104668509799, -88.02, -88.02, -0.4993, 0.0262, 1.3084, -24.9657, -24.9657
283.2, (677.882,-3.769), 289.0105, 100.0, 287.87045172439065, -78.66, -78.66, -0.489, 0.1045, 5.2234, -24.4482, -24.4482
276.48, (678.276,-5.728), 282.2904, 100.0, 283.01043404570265, -81.72, -81.72, -0.4961, 0.0627, 3.1333, -24.8029, -24.8029
266.82, (678.325,-7.725), 272.6304, 100.0, 272.6304237234164, -92.16, -92.16, -0.4992, -0.0277, -1.3868, -24.9615, -24.9615
266.94, (678.129,-9.715), 272.7504, 100.0, 272.7504082354428, -94.14, -94.14, -0.4993, -0.0267, -1.3345, -24.9644, -24.9644
267.24, (678.126,-11.514), 273.0504, 100.0, 274.13039198824634, -90.54, -90.54, -0.4998, -0.0147, -0.7329, -24.9893, -24.9893
257.52, (677.876,-13.496), 263.3304, 100.0, 264.17038119807296, -100.56, -100.56, -0.4897, -0.1009, -5.044, -24.4859, -24.4859
247.44, (677.284,-15.403), 253.2504, 100.0, 253.6703601656253, -110.94, -110.94, -0.4631, -0.1884, -9.4218, -23.1566, -23.1566
248.16, (676.451,-17.221), 253.9703, 100.0, 253.55034513788036, -113.1, -113.1, -0.4627, -0.1894, -9.4703, -23.1369, -23.1369
244.68, (675.715,-19.079), 250.4903, 100.0, 250.49032854173353, -114.24, -114.24, -0.452, -0.2138, -10.6918, -22.5983, -22.5983
248.22, (674.924,-20.695), 254.0303, 100.0, 252.89031018897475, -113.94, -113.94, -0.4605, -0.1947, -9.7361, -23.0262, -23.0262
249.48, (674.277,-22.587), 255.2903, 100.0, 255.950294683303, -109.14, -109.14, -0.4703, -0.1699, -8.4931, -23.5131, -23.5131
239.58, (673.411,-24.386), 245.3903, 100.0, 245.39027388818124, -119.4, -119.4, -0.4312, -0.2532, -12.6584, -21.5584, -21.5584
229.26, (672.365,-25.849), 235.0703, 100.0, 236.21025942556605, -128.82, -128.82, -0.3853, -0.3187, -15.9356, -19.2628, -19.2628
219.6, (670.949,-27.258), 225.4102, 100.0, 226.19024046135985, -138.42, -138.42, -0.3239, -0.3809, -19.0441, -16.1964, -16.1964
209.76, (669.312,-28.403), 215.5702, 100.0, 216.2902227717791, -148.38, -148.38, -0.2536, -0.4309, -21.5452, -12.6809, -12.6809
203.22, (667.506,-29.257), 209.0302, 100.0, 208.67020277383585, -158.22, -158.22, -0.1942, -0.4607, -23.0364, -9.712, -9.712
213.42, (665.751,-30.211), 219.2302, 100.0, 218.8701914380922, -147.96, -147.96, -0.2728, -0.419, -20.9525, -13.6379, -13.6379
223.5, (664.339,-31.324), 229.3102, 100.0, 228.2301792190777, -138.66, -138.66, -0.3373, -0.3691, -18.4555, -16.864, -16.864
232.14, (662.999,-32.806), 237.9502, 100.0, 238.25016414791892, -128.64, -128.64, -0.3964, -0.3048, -15.2398, -19.8179, -19.8179
222.12, (661.639,-34.269), 227.9301, 100.0, 228.29014606133646, -136.5, -136.5, -0.3377, -0.3688, -18.4378, -16.8833, -16.8833
212.1, (660.046,-35.474), 217.9101, 100.0, 218.33012695337072, -146.46, -146.46, -0.2688, -0.4216, -21.0801, -13.4398, -13.4398
202.02, (658.445,-36.293), 207.8301, 100.0, 208.49011066916287, -156.24, -156.24, -0.1928, -0.4613, -23.0668, -9.6396, -9.6396
211.02, (656.651,-37.169), 216.8301, 100.0, 216.53009304584802, -150.3, -150.3, -0.2554, -0.4298, -21.4919, -12.7711, -12.7711
202.26, (654.876,-38.086), 208.0701, 100.0, 208.4900737732625, -156.24, -156.24, -0.1928, -0.4613, -23.0668, -9.6396, -9.6396
205.56, (653.064,-38.929), 211.3701, 100.0, 211.3700570287842, -153.36, -153.36, -0.2157, -0.4511, -22.5533, -10.7864, -10.7864
196.32, (651.382,-39.565), 202.13, 100.0, 202.85004068557424, -161.94, -161.94, -0.1465, -0.4781, -23.9025, -7.326, -7.326
186.3, (649.425,-39.965), 192.11, 100.0, 192.53002843633723, -172.14, -172.14, -0.0585, -0.4966, -24.8282, -2.9254, -2.9254
179.34, (647.428,-40.016), 185.15, 100.0, 184.37001159347122, 177.84, 177.84, 0.0126, -0.4998, -24.9921, 0.6283, 0.6283
189.3, (645.436,-40.167), 195.11, 100.0, 194.75000024147454, -172.14, -172.14, -0.0777, -0.4939, -24.6963, -3.885, -3.885
183.06, (643.456,-40.427), 188.87, 100.0, 188.86997820229473, -175.98, -175.98, -0.0267, -0.4993, -24.9644, -1.3345, -1.3345
173.46, (641.658,-40.375), 179.27, 100.0, 179.98996614421455, 175.2, 175.2, 0.0507, -0.4974, -24.8711, 2.5351, 2.5351
163.2, (639.7,-39.984), 169.0099, 100.0, 169.6699478384591, 164.94, 164.94, 0.139, -0.4803, -24.0146, 6.9496, 6.9496
168.48, (637.776,-39.445), 174.2899, 100.0, 174.2899286914802, 167.52, 167.52, 0.0999, -0.4899, -24.4964, 4.9927, 4.9927
170.16, (635.993,-39.196), 175.9699, 100.0, 176.74991166595285, 172.2, 172.2, 0.0787, -0.4938, -24.6881, 3.9367, 3.9367
168.18, (634.046,-38.743), 173.9899, 100.0, 173.62990037363497, 166.74, 166.74, 0.1055, -0.4887, -24.4372, 5.2746, 5.2746
177.84, (632.062,-38.515), 183.6499, 100.0, 183.6498832319709, 177.06, 177.06, 0.0188, -0.4996, -24.9822, 0.9423, 0.9423
176.34, (630.262,-38.513), 182.1499, 100.0, 183.22986457170686, 178.44, 178.44, 0.0225, -0.4995, -24.9747, 1.1254, 1.1254
166.56, (628.287,-38.221), 172.3698, 100.0, 172.72984549031017, 168, 168, 0.1132, -0.487, -24.3514, 5.6578, 5.6578
156.6, (626.397,-37.574), 162.4098, 100.0, 162.40982854010312, 157.68, 157.68, 0.1986, -0.4589, -22.9439, 9.9287, 9.9287
155.52, (624.788,-36.768), 161.3298, 100.0, 160.66981635851167, 153.72, 153.72, 0.2124, -0.4526, -22.6318, 10.6208, 10.6208
165.72, (622.907,-36.096), 171.5298, 100.0, 170.80979947087533, 163.92, 163.92, 0.1294, -0.483, -24.1481, 6.4705, 6.4705
167.58, (620.945,-35.715), 173.3898, 100.0, 173.7497840613143, 168.72, 168.72, 0.1045, -0.489, -24.4482, 5.2234, 5.2234
173.28, (618.985,-35.324), 179.0898, 100.0, 178.72976368470128, 171.84, 171.84, 0.0616, -0.4962, -24.8094, 3.0814, 3.0814
167.82, (617.005,-35.057), 173.6297, 100.0, 173.98974879103548, 169.26, 169.26, 0.1024, -0.4894, -24.4699, 5.1209, 5.1209
158.1, (615.095,-34.471), 163.9097, 100.0, 164.26972485240398, 159.24, 159.24, 0.1836, -0.4651, -23.254, 9.1788, 9.1788
148.02, (613.491,-33.659), 153.8297, 100.0, 154.96970924992462, 149.88, 149.88, 0.2563, -0.4293, -21.4651, 12.8161, 12.8161
141.3, (611.884,-32.471), 147.1097, 100.0, 146.02969609295283, 139.8, 139.8, 0.3199, -0.3843, -19.2127, 15.996, 15.996
151.38, (610.228,-31.355), 157.1897, 100.0, 156.40967775280743, 149.76, 149.76, 0.2455, -0.4356, -21.7803, 12.2726, 12.2726
158.88, (608.401,-30.546), 164.6897, 100.0, 164.68966358884938, 159.9, 159.9, 0.1802, -0.4664, -23.3207, 9.0081, 9.0081
148.62, (606.787,-29.755), 154.4296, 100.0, 155.50964639222198, 150.78, 150.78, 0.2523, -0.4317, -21.5849, 12.6132, 12.6132
156.54, (605.03,-28.803), 162.3496, 100.0, 162.04962664926273, 155.16, 155.16, 0.2015, -0.4576, -22.881, 10.0727, 10.0727
149.58, (603.236,-27.926), 155.3896, 100.0, 155.3896108198271, 150.66, 150.66, 0.2532, -0.4312, -21.5584, 12.6584, 12.6584
153.3, (601.444,-27.039), 159.1096, 100.0, 159.10959848255825, 154.32, 154.32, 0.2247, -0.4467, -22.3343, 11.233, 11.233
148.92, (599.735,-26.003), 154.7296, 100.0, 154.72958217178623, 147.9, 147.9, 0.2581, -0.4282, -21.4112, 12.9059, 12.9059
158.04, (598.121,-25.21), 163.8496, 100.0, 162.70956778661633, 156.12, 156.12, 0.1962, -0.4599, -22.9955, 9.8084, 9.8084
164.82, (596.214,-24.612), 170.6296, 100.0, 171.82955217450953, 166.38, 166.38, 0.1208, -0.4852, -24.2595, 6.0396, 6.0396
172.32, (594.264,-24.178), 178.1295, 100.0, 177.76953178679048, 170.82, 170.82, 0.0699, -0.4951, -24.7543, 3.4966, 3.4966
180.12, (592.272,-24.023), 185.9295, 100.0, 185.20951357698445, 178.68, 178.68, 0.0052, -0.5, -24.9986, 0.2618, 0.2618
176.46, (590.273,-24.037), 182.2695, 100.0, 182.68949764203398, 177.6, 177.6, 0.0272, -0.4993, -24.9629, 1.3607, 1.3607
178.8, (588.481,-23.881), 184.6095, 100.0, 183.529478499907, 176.64, 176.64, 0.0199, -0.4996, -24.9802, 0.9946, 0.9946
181.02, (586.481,-23.906), 186.8295, 100.0, 186.10946630481857, 179.46, 179.46, -0.0026, -0.5, -24.9997, -0.1309, -0.1309
187.62, (584.493,-24.103), 193.4294, 100.0, 193.42944943006384, -171.24, -171.24, -0.0663, -0.4956, -24.7792, -3.3151, -3.3151
197.28, (582.543,-24.535), 203.0894, 100.0, 203.0894276386324, -163.8, -163.8, -0.1485, -0.4774, -23.8716, -7.426, -7.426
202.74, (580.832,-25.091), 208.5494, 100.0, 207.3494127929356, -159.54, -159.54, -0.1836, -0.4651, -23.254, -9.1788, -9.1788
212.76, (579.058,-26.008), 218.5694, 100.0, 217.78939817478778, -148.98, -148.98, -0.2648, -0.4241, -21.2058, -13.2406, -13.2406
208.86, (577.378,-27.092), 214.6694, 100.0, 215.08938567291798, -149.58, -149.58, -0.2445, -0.4361, -21.806, -12.227, -12.227
198.6, (575.548,-27.891), 204.4094, 100.0, 204.70936718878104, -159.96, -159.96, -0.162, -0.473, -23.6521, -8.0979, -8.0979
193.92, (573.806,-28.339), 199.7294, 100.0, 199.06935315879448, -167.76, -167.76, -0.1147, -0.4867, -24.3335, -5.7343, -5.7343
202.92, (571.911,-28.972), 208.7293, 100.0, 207.8893396818289, -158.7, -158.7, -0.188, -0.4633, -23.1665, -9.3975, -9.3975
209.82, (570.14,-29.897), 215.6293, 100.0, 216.04932090591683, -148.68, -148.68, -0.2518, -0.432, -21.5981, -12.5906, -12.5906
208.98, (568.357,-30.802), 214.7893, 100.0, 214.42931153379024, -152.52, -152.52, -0.2395, -0.4389, -21.9454, -11.975, -11.975
201.9, (566.751,-31.611), 207.7093, 100.0, 208.4292952853638, -156.36, -156.36, -0.1923, -0.4615, -23.0769, -9.6154, -9.6154
208.5, (564.922,-32.414), 214.3093, 100.0, 213.58927786224052, -153.3, -153.3, -0.233, -0.4424, -22.1186, -11.6519, -11.6519
218.16, (563.25,-33.509), 223.9693, 100.0, 223.60925580045597, -143.4, -143.4, -0.3065, -0.3951, -19.7539, -15.3227, -15.3227
228.06, (561.797,-34.879), 233.8692, 100.0, 233.4492384631884, -133.38, -133.38, -0.3695, -0.3369, -16.8447, -18.4731, -18.4731
237.78, (560.603,-36.48), 243.5892, 100.0, 243.58921888697432, -123, -123, -0.423, -0.2666, -13.3293, -21.1502, -21.1502
247.38, (559.772,-38.075), 253.1892, 100.0, 252.4692064841992, -114.42, -114.42, -0.4591, -0.1981, -9.9047, -22.9543, -22.9543
239.1, (558.898,-39.871), 244.9092, 100.0, 245.2691860527089, -119.46, -119.46, -0.4306, -0.2541, -12.7035, -21.5319, -21.5319
238.32, (557.784,-41.532), 244.1292, 100.0, 243.76916457673084, -123.12, -123.12, -0.4238, -0.2653, -13.2628, -21.1919, -21.1919
239.58, (556.821,-43.284), 245.3891, 100.0, 245.02914592988722, -119.7, -119.7, -0.4296, -0.2559, -12.7936, -21.4785, -21.4785
249.54, (556.045,-44.906), 255.3491, 100.0, 254.62912552319486, -112.62, -112.62, -0.4662, -0.1806, -9.0325, -23.3112, -23.3112
254.82, (555.367,-46.786), 260.6291, 100.0, 259.48910573758315, -107.04, -107.04, -0.4799, -0.1405, -7.025, -23.9927, -23.9927
265.08, (555.002,-48.75), 270.8891, 100.0, 269.86909123164435, -97.14, -97.14, -0.4973, -0.0517, -2.5872, -24.8658, -24.8658
256.92, (554.732,-50.729), 262.7291, 100.0, 263.44907304655504, -101.28, -101.28, -0.4884, -0.107, -5.3513, -24.4205, -24.4205
247.68, (554.136,-52.636), 253.4891, 100.0, 253.78905704699218, -110.82, -110.82, -0.4635, -0.1875, -9.3733, -23.1763, -23.1763
237.84, (553.215,-54.408), 243.649, 100.0, 243.94904555001364, -120.84, -120.84, -0.4247, -0.2639, -13.1961, -21.2335, -21.2335
227.76, (551.998,-55.992), 233.569, 100.0, 233.5690341247795, -131.1, -131.1, -0.3702, -0.3361, -16.8059, -18.5084, -18.5084
217.74, (550.678,-57.214), 223.549, 100.0, 224.68902097170857, -140.4, -140.4, -0.3138, -0.3892, -19.4616, -15.6923, -15.6923
207.9, (549.007,-58.308), 213.709, 100.0, 214.42900403884124, -150.24, -150.24, -0.2395, -0.4389, -21.9454, -11.975, -11.975
209.4, (547.216,-59.196), 215.209, 100.0, 214.84898885093776, -152.04, -152.04, -0.2427, -0.4371, -21.857, -12.1355, -12.1355
219.48, (545.574,-60.332), 225.289, 100.0, 225.2889717794133, -141.6, -141.6, -0.3179, -0.3859, -19.2962, -15.8952, -15.8952
229.68, (544.296,-61.597), 235.489, 100.0, 234.70895333204848, -132.18, -132.18, -0.3768, -0.3287, -16.4344, -18.8391, -18.8391
223.86, (542.972,-63.094), 229.6689, 100.0, 230.0889379348999, -134.58, -134.58, -0.3491, -0.358, -17.8984, -17.4541, -17.4541
213.96, (541.419,-64.351), 219.7689, 100.0, 220.1289161317699, -144.54, -144.54, -0.2819, -0.413, -20.6475, -14.0954, -14.0954
204.3, (539.672,-65.318), 210.1089, 100.0, 210.1088987162605, -154.56, -154.56, -0.2058, -0.4557, -22.7851, -10.2879, -10.2879
199.98, (537.98,-65.93), 205.7889, 100.0, 204.64888641669793, -162.24, -162.24, -0.1615, -0.4732, -23.6606, -8.0732, -8.0732
205.14, (536.156,-66.746), 210.9489, 100.0, 211.72886984568203, -153, -153, -0.2186, -0.4497, -22.4851, -10.9279, -10.9279
194.76, (534.283,-67.439), 200.5689, 100.0, 201.64885155824444, -163.5, -163.5, -0.1365, -0.481, -24.0507, -6.8238, -6.8238
194.46, (532.33,-67.869), 200.2688, 100.0, 199.90883059628214, -167.04, -167.04, -0.1218, -0.4849, -24.2468, -6.0904, -6.0904
204.18, (530.635,-68.467), 209.9888, 100.0, 209.26881495417197, -157.32, -157.32, -0.1991, -0.4587, -22.9335, -9.9527, -9.9527
205.74, (528.859,-69.385), 211.5488, 100.0, 212.3287987875395, -152.46, -152.46, -0.2233, -0.4474, -22.3695, -11.1628, -11.1628
196.98, (526.994,-70.103), 202.7888, 100.0, 202.7887856498762, -161.88, -161.88, -0.146, -0.4782, -23.9102, -7.3009, -7.3009
187.44, (525.234,-70.473), 193.2488, 100.0, 194.02877314455264, -170.7, -170.7, -0.0715, -0.4949, -24.7432, -3.5744, -3.5744
177.3, (523.239,-70.562), 183.1088, 100.0, 183.8287531305888, 178.74, 178.74, 0.0173, -0.4997, -24.9851, 0.8638, 0.8638
172.14, (521.256,-70.313), 177.9487, 100.0, 177.94873343902717, 171.06, 171.06, 0.0684, -0.4953, -24.7651, 3.4188, 3.4188
182.28, (519.46,-70.228), 188.0887, 100.0, 187.36872021681273, -179.76, -179.76, -0.0136, -0.4998, -24.9907, -0.6806, -0.6806
192.06, (517.477,-70.469), 197.8687, 100.0, 197.20870675460768, -169.38, -169.38, -0.0988, -0.4901, -24.5068, -4.9414, -4.9414
193.26, (515.546,-70.986), 199.0687, 100.0, 199.36869457632088, -165.6, -165.6, -0.1172, -0.4861, -24.3031, -5.8616, -5.8616
183.36, (513.568,-71.266), 189.1687, 100.0, 189.52867643911253, -175.26, -175.26, -0.0324, -0.4989, -24.9473, -1.622, -1.622
173.76, (511.572,-71.201), 179.5687, 100.0, 179.56865921454462, 174.54, 174.54, 0.0543, -0.497, -24.8519, 2.7173, 2.7173
163.8, (509.81,-70.841), 169.6086, 100.0, 170.32864391512138, 165.54, 165.54, 0.1335, -0.4819, -24.0931, 6.6725, 6.6725
154.02, (507.944,-70.129), 159.8286, 100.0, 160.548627298338, 155.88, 155.88, 0.2134, -0.4522, -22.6095, 10.6682, 10.6682
144.78, (506.397,-69.212), 150.5886, 100.0, 151.3086164330637, 146.22, 146.22, 0.2832, -0.4121, -20.6032, 14.1602, 14.1602
134.94, (504.874,-67.92), 140.7486, 100.0, 141.10860179808597, 136.02, 136.02, 0.3517, -0.3554, -17.77, 17.5849, 17.5849
124.38, (503.595,-66.386), 130.1886, 100.0, 130.9085827321132, 126.24, 126.24, 0.4091, -0.2875, -14.3751, 20.4537, 20.4537
114.66, (502.607,-64.65), 120.4686, 100.0, 120.82856390903167, 116.1, 116.1, 0.4531, -0.2115, -10.5734, 22.654, 22.654
104.88, (501.991,-62.961), 110.6885, 100.0, 111.82854176762214, 106.68, 106.68, 0.4806, -0.138, -6.8993, 24.0291, 24.0291
95.4, (501.622,-60.998), 101.2085, 100.0, 102.04852764490279, 97.02, 97.02, 0.497, -0.0543, -2.7173, 24.8519, 24.8519
85.38, (501.597,-59), 91.1885, 100.0, 91.90850837351118, 87.18, 87.18, 0.4988, 0.034, 1.7004, 24.9421, 24.9421
75.96, (501.916,-57.028), 81.7685, 100.0, 82.12849138521469, 77.4, 77.4, 0.4858, 0.1182, 5.9125, 24.2908, 24.2908
66.06, (502.572,-55.141), 71.8685, 100.0, 72.28848107170441, 67.56, 67.56, 0.4585, 0.1995, 9.9767, 22.923, 22.923
56.34, (503.437,-53.565), 62.1485, 100.0, 62.86846718353092, 58.44, 58.44, 0.4196, 0.2719, 13.594, 20.981, 20.981
46.44, (504.678,-51.999), 52.2485, 100.0, 52.968451706211376, 48.24, 48.24, 0.3666, 0.34, 16.9988, 18.3314, 18.3314
36.84, (506.172,-50.673), 42.6484, 100.0, 42.94843668360155, 37.98, 37.98, 0.3019, 0.3986, 19.9291, 15.0941, 15.0941
26.94, (507.873,-49.627), 32.7484, 100.0, 33.16842128803533, 28.32, 28.32, 0.2298, 0.4441, 22.2034, 11.4895, 11.4895
17.1, (509.731,-48.893), 22.9084, 100.0, 22.908408474540522, 18.24, 18.24, 0.147, 0.4779, 23.8948, 7.351, 7.351
7.62, (511.49,-48.521), 13.4284, 100.0, 13.788394825931404, 8.7, 8.7, 0.0694, 0.4952, 24.7579, 3.4707, 3.4707
358.02, (513.486,-48.435), 3.5884, 100.0, 3.5883784990056498, -0.96, -0.96, -0.0173, 0.4997, 24.9851, -0.8638, -0.8638
347.76, (515.467,-48.692), 353.3516, 100.0, 353.65161843141647, -10.86, -10.86, -0.1034, 0.4892, 24.4591, -5.1722, -5.1722
338.16, (517.187,-49.213), 343.7516, 100.0, 344.4716019749996, -19.98, -19.98, -0.1802, 0.4664, 23.3207, -9.0081, -9.0081
328.08, (518.975,-50.105), 333.6716, 100.0, 334.3915846547833, -29.82, -29.82, -0.259, 0.4277, 21.3841, -12.9507, -12.9507
317.88, (520.574,-51.301), 323.4716, 100.0, 324.19156351575214, -40.26, -40.26, -0.3307, 0.3751, 18.7528, -16.5328, -16.5328
308.04, (521.939,-52.76), 313.6316, 100.0, 313.9915510114455, -50.46, -50.46, -0.3918, 0.3106, 15.5287, -19.5923, -19.5923
313.56, (523.067,-54.161), 319.1515, 100.0, 318.011538423179, -48.36, -48.36, -0.3691, 0.3373, 16.864, -18.4555, -18.4555
323.4, (524.552,-55.496), 328.9915, 100.0, 328.33152624787544, -38.46, -38.46, -0.3027, 0.3979, 19.8974, -15.1358, -15.1358
329.7, (526.074,-56.455), 335.2915, 100.0, 336.0115123698706, -28.8, -28.8, -0.2468, 0.4348, 21.7417, -12.341, -12.341
332.52, (527.784,-57.49), 338.1115, 100.0, 337.69149613213585, -29.22, -29.22, -0.234, 0.4419, 22.0941, -11.6982, -11.6982
340.26, (529.615,-58.293), 345.8515, 100.0, 345.85147658602335, -21.18, -21.18, -0.1689, 0.4706, 23.5309, -8.4438, -8.4438
340.62, (531.337,-58.812), 346.2115, 100.0, 347.29146615030055, -17.22, -17.22, -0.157, 0.4747, 23.7356, -7.8498, -7.8498
349.74, (533.261,-59.35), 355.3314, 100.0, 354.61144628657064, -12.12, -12.12, -0.0952, 0.4908, 24.5423, -4.7617, -4.7617
358.98, (535.247,-59.569), 4.5714, 100.0, 3.8514340210738505, -2.88, -2.88, -0.0152, 0.4998, 24.9885, -0.7591, -0.7591
7.92, (537.241,-59.457), 13.5114, 100.0, 13.151414787290362, 6.54, 6.54, 0.0658, 0.4957, 24.7827, 3.2891, 3.2891
12.3, (539.213,-59.124), 17.8914, 100.0, 17.891401431716545, 11.28, 11.28, 0.1065, 0.4885, 24.4261, 5.3258, 5.3258
13.32, (540.947,-58.645), 18.9114, 100.0, 19.63138466348396, 15.12, 15.12, 0.1213, 0.4851, 24.2532, 6.065, 6.065
5.88, (542.923,-58.35), 11.4714, 100.0, 11.051369295674625, 5.04, 5.04, 0.0476, 0.4977, 24.8866, 2.3788, 2.3788
13.8, (544.884,-57.966), 19.3914, 100.0, 19.751350564179088, 14.88, 14.88, 0.1223, 0.4848, 24.2404, 6.1158, 6.1158
4.14, (546.859,-57.668), 9.7313, 100.0, 9.731334542539384, 4.92, 4.92, 0.0361, 0.4987, 24.9348, 1.8048, 1.8048
14.1, (548.634,-57.381), 19.6913, 100.0, 18.91132135400243, 12.36, 12.36, 0.1152, 0.4865, 24.3275, 5.7597, 5.7597
23.04, (550.535,-56.766), 28.6313, 100.0, 27.911304428942874, 21.3, 21.3, 0.1899, 0.4625, 23.1269, 9.4945, 9.4945
32.1, (552.309,-55.847), 37.6913, 100.0, 37.39128529882457, 30.72, 30.72, 0.2635, 0.4249, 21.2473, 13.1739, 13.1739
30.66, (554.019,-54.813), 36.2513, 100.0, 36.25126684901581, 29.22, 29.22, 0.255, 0.4301, 21.5052, 12.7486, 12.7486
40.62, (555.48,-53.764), 46.2113, 100.0, 45.5512541065908, 38.94, 38.94, 0.3211, 0.3832, 19.1623, 16.0563, 16.0563
46.86, (556.888,-52.347), 52.4512, 100.0, 53.171236946799596, 48.66, 48.66, 0.3691, 0.3373, 16.864, 18.4555, 18.4555
43.26, (558.356,-50.99), 48.8512, 100.0, 48.07122428234404, 41.4, 41.4, 0.3377, 0.3688, 18.4378, 16.8833, 16.8833
52.26, (559.695,-49.507), 57.8512, 100.0, 57.49120447609251, 50.76, 50.76, 0.3935, 0.3085, 15.4259, 19.6734, 19.6734
57.3, (560.678,-48.001), 62.8912, 100.0, 63.91119233769363, 59.4, 59.4, 0.4255, 0.2626, 13.1294, 21.2749, 21.2749
47.52, (561.887,-46.411), 53.1112, 100.0, 53.89117483016101, 49.14, 49.14, 0.3733, 0.3326, 16.6308, 18.666, 18.666
45.3, (563.322,-45.019), 50.8912, 100.0, 50.17115835692911, 43.44, 43.44, 0.351, 0.3561, 17.8068, 17.5476, 17.5476
47.76, (564.642,-43.518), 53.3511, 100.0, 53.35114304591486, 48.9, 48.9, 0.3702, 0.3361, 16.8059, 18.5084, 18.5084
56.22, (565.772,-42.119), 61.8111, 100.0, 60.73113126044661, 54.12, 54.12, 0.4103, 0.2858, 14.2893, 20.5138, 20.5138
66.48, (566.74,-40.372), 72.0711, 100.0, 71.2911166538615, 64.68, 64.68, 0.4557, 0.2058, 10.2879, 22.7851, 22.7851
