Rotation, Location, Gyro Rotation, Sensor Optical Flow, Battery Level, Yaw, Pitch, Roll, Vy, Vx, AccX, AccY
0, (0.132,0), 360, 100.0, 360.0000011958106, 0, 0, 0, 0.027, 1.35, 0, 0
0, (0.134,0), 360, 100.0, 359.99998815188604, 0, 0, 0, 0, 0, 0, 0
0, (0.134,0), 360, 100.0, 359.99997258310384, 0, 0, 0, 0, 0, 0, 0
0, (0.134,0), 360, 100.0, 359.99996033997, 0, 0, 0, 0, 0, 0, 0
0, (0.134,0), 360, 100.0, 359.9999542152316, 0, 0, 0, 0, 0, 0, 0
0, (0.134,0), 359.9999, 100.0, 359.99993936961533, 0, 0, 0, 0, 0, 0, 0
0, (0.134,0), 359.9999, 100.0, 359.9999231875694, 0, 0, 0, 0, 0, 0, 0
0, (0.134,0), 359.9999, 100.0, 359.99990747862404, 0, 0, 0, 0, 0, 0, 0
0, (0.134,0), 359.9999, 100.0, 359.9998900893748, 0, 0, 0, 0, 0, 0, 0
0, (0.134,0), 359.9999, 100.0, 359.9998759674853, 0, 0, 0, 0, 0, 0, 0
0, (0.134,0), 359.9999, 100.0, 359.99986296209306, 0, 0, 0, 0, 0, 0, 0
0, (0.134,0), 359.9998, 100.0, 359.999848587314, 0, 0, 0, 0, 0, 0, 0
0, (0.134,0), 359.9998, 100.0, 359.9998348860649, 0, 0, 0, 0, 0, 0, 0
4.08, (0.2,0.003), 4.0798, 100.0, 4.079819526368796, 2.7, 2.7, 0.0052, 0.0728, 3.6407, 0.2597, 0.2597
13.68, (0.776,0.104), 13.6798, 100.0, 13.019801036018352, 11.94, 11.94, 0.0553, 0.2335, 11.6772, 2.7647, 2.7647
21.78, (1.894,0.476), 21.7798, 100.0, 20.399788356644926, 20.4, 20.4, 0.1391, 0.374, 18.6988, 6.954, 6.954
30, (3.603,1.338), 29.9998, 100.0, 30.659775746052286, 30.3, 30.3, 0.255, 0.4301, 21.5052, 12.7486, 12.7486
20.34, (5.417,2.175), 20.3398, 100.0, 20.339757964911474, 20.76, 20.76, 0.1738, 0.4688, 23.4412, 8.6898, 8.6898
21.54, (7.104,2.802), 21.5397, 100.0, 20.63974141466381, 20.34, 20.34, 0.1762, 0.4679, 23.3953, 8.8124, 8.8124
31.02, (8.891,3.693), 31.0197, 100.0, 30.659723395717567, 30.3, 30.3, 0.255, 0.4301, 21.5052, 12.7486, 12.7486
40.74, (10.34,4.757), 40.7397, 100.0, 40.739707360137096, 39.72, 39.72, 0.3263, 0.3788, 18.942, 16.3157, 16.3157
30.42, (11.797,5.811), 30.4197, 100.0, 31.499694466622476, 32.46, 32.46, 0.2612, 0.4263, 21.316, 13.0625, 13.0625
20.1, (13.597,6.675), 20.0997, 100.0, 20.81967967142144, 21.84, 21.84, 0.1777, 0.4674, 23.3675, 8.8858, 8.8858
9.9, (15.527,7.188), 9.8997, 100.0, 9.899665322046081, 11.34, 11.34, 0.086, 0.4926, 24.6277, 4.2982, 4.2982
359.64, (17.319,7.333), 359.6403, 100.0, 0.2996577360701576, 1.38, 1.38, 0.0026, 0.5, 24.9997, 0.1309, 0.1309
349.44, (19.307,7.14), 349.4403, 100.0, 349.4403259761935, -9.18, -9.18, -0.0916, 0.4915, 24.5766, -4.5816, -4.5816
339.12, (21.037,6.65), 339.1203, 100.0, 339.84031363109665, -19.14, -19.14, -0.1723, 0.4694, 23.4683, -8.6161, -8.6161
328.56, (22.832,5.774), 328.5603, 100.0, 328.9802989870638, -29.94, -29.94, -0.2577, 0.4285, 21.4247, -12.8834, -12.8834
318.24, (24.269,4.694), 318.2403, 100.0, 318.90028573226994, -40.08, -40.08, -0.3287, 0.3768, 18.8391, -16.4344, -16.4344
310.5, (25.509,3.392), 310.5003, 100.0, 310.5002759153195, -49.5, -49.5, -0.3802, 0.3247, 16.2362, -19.0101, -19.0101
310.5, (27.068,1.567), 310.5003, 100.0, 310.5002566709238, -49.5, -49.5, -0.3802, 0.3247, 16.2362, -19.0101, -19.0101
302.76, (28.16,0.138), 302.7602, 100.0, 303.06023788827395, -55.62, -55.62, -0.419, 0.2728, 13.6379, -20.9525, -20.9525
300.42, (29.078,-1.41), 300.4202, 100.0, 300.42022710717964, -59.58, -59.58, -0.4312, 0.2532, 12.6584, -21.5584, -21.5584
300.42, (30.091,-3.134), 300.4202, 100.0, 300.4202124256524, -59.58, -59.58, -0.4312, 0.2532, 12.6584, -21.5584, -21.5584
293.94, (31.033,-4.897), 293.9402, 100.0, 293.9401880928552, -65.04, -65.04, -0.457, 0.2029, 10.1445, -22.8493, -22.8493
290.4, (31.676,-6.577), 290.4002, 100.0, 290.4001661983083, -69.6, -69.6, -0.4686, 0.1743, 8.7143, -23.432, -23.432
297.9, (32.463,-8.414), 297.9002, 100.0, 297.6001502078569, -63.42, -63.42, -0.4431, 0.2316, 11.5824, -22.1551, -22.1551
307.5, (33.422,-9.935), 307.5001, 100.0, 306.30012965148035, -54.84, -54.84, -0.403, 0.296, 14.8003, -20.1482, -20.1482
314.52, (34.721,-11.455), 314.5201, 100.0, 313.8001123873505, -47.22, -47.22, -0.3609, 0.3461, 17.3036, -18.044, -18.044
320.58, (36.222,-12.774), 320.5801, 100.0, 320.5800953520814, -39.42, -39.42, -0.3175, 0.3863, 19.3128, -15.875, -15.875
320.58, (37.613,-13.917), 320.5801, 100.0, 320.5800738729224, -39.42, -39.42, -0.3175, 0.3863, 19.3128, -15.875, -15.875
320.58, (39.158,-15.187), 320.5801, 100.0, 320.58005849254084, -39.42, -39.42, -0.3175, 0.3863, 19.3128, -15.875, -15.875
311.34, (40.465,-16.422), 311.34, 100.0, 312.3600459713436, -46.62, -46.62, -0.3695, 0.3369, 16.8447, -18.4731, -18.4731
316.38, (41.809,-17.902), 316.38, 100.0, 316.0200270517535, -45, -45, -0.3472, 0.3598, 17.9896, -17.3602, -17.3602
326.1, (43.369,-19.15), 326.1, 100.0, 325.80000676464056, -35.22, -35.22, -0.281, 0.4135, 20.677, -14.0521, -14.0521
330.72, (44.923,-20.057), 330.72, 100.0, 330.71999048110774, -29.28, -29.28, -0.2445, 0.4361, 21.806, -12.227, -12.227
330.72, (46.667,-21.035), 330.72, 100.0, 330.71997718454173, -29.28, -29.28, -0.2445, 0.4361, 21.806, -12.227, -12.227
331.02, (48.411,-22.014), 331.02, 100.0, 330.71996173219895, -29.28, -29.28, -0.2445, 0.4361, 21.806, -12.227, -12.227
340.92, (50.051,-22.75), 340.9199, 100.0, 340.19994901890976, -20.88, -20.88, -0.1694, 0.4704, 23.522, -8.4684, -8.4684
339.96, (51.941,-23.406), 339.9599, 100.0, 340.25993845302224, -19.08, -19.08, -0.1689, 0.4706, 23.5309, -8.4438, -8.4438
330.78, (53.745,-24.263), 330.7799, 100.0, 330.77991849729483, -29.22, -29.22, -0.2441, 0.4364, 21.8188, -12.2041, -12.2041
336.42, (55.416,-25.138), 336.4199, 100.0, 336.05990219398683, -24.96, -24.96, -0.1672, 0.3766, 18.8278, -8.3591, -8.3591
346.44, (56.511,-25.514), 346.4399, 100.0, 345.71988720599325, -15.36, -15.36, -0.0619, 0.2432, 12.1622, -3.0956, -3.0956
356.88, (57.119,-25.615), 356.8799, 100.0, 356.15987052085626, -4.98, -4.98, -0.0052, 0.0768, 3.8414, -0.2578, -0.2578
6.78, (57.17,-25.617), 6.7799, 100.0, 6.059857641822318, 0, 0, 0, 0, 0, 0, 0
16.98, (57.17,-25.617), 16.9798, 100.0, 16.619841526862597, 0, 0, 0, 0, 0, 0, 0
27.54, (57.17,-25.617), 27.5398, 100.0, 27.17982481422466, 0, 0, 0, 0, 0, 0, 0
37.44, (57.17,-25.617), 37.4398, 100.0, 36.71981617730578, 0, 0, 0, 0, 0, 0, 0
47.76, (57.17,-25.617), 47.7598, 100.0, 47.33980761266508, 0, 0, 0, 0, 0, 0, 0
57.66, (57.17,-25.617), 57.6598, 100.0, 57.299792452424136, 0, 0, 0, 0, 0, 0, 0
68.04, (57.17,-25.617), 68.0398, 100.0, 67.67977174081399, 0, 0, 0, 0, 0, 0, 0
77.4, (57.196,-25.516), 77.3998, 100.0, 76.6197569636946, 75.84, 75.84, 0.0866, 0.0206, 1.0298, 4.3292, 4.3292
87.9, (57.282,-24.767), 87.8997, 100.0, 87.5397335955317, 86.52, 86.52, 0.2708, 0.0116, 0.5816, 13.5375, 13.5375
98.04, (57.208,-23.474), 98.0397, 100.0, 97.31972671311489, 96.24, 96.24, 0.4305, -0.0553, -2.7648, 21.5231, 21.5231
108, (56.763,-21.565), 107.9997, 100.0, 107.69970992970454, 106.68, 106.68, 0.4763, -0.152, -7.6008, 23.8165, 23.8165
118.32, (56.054,-19.913), 118.3197, 100.0, 117.53969057582403, 116.52, 116.52, 0.4433, -0.2312, -11.5592, 22.1672, 22.1672
128.58, (54.959,-18.243), 128.5797, 100.0, 127.91966454575224, 126.84, 126.84, 0.3944, -0.3073, -15.364, 19.7217, 19.7217
138.72, (53.574,-16.804), 138.7196, 100.0, 138.71964791513577, 137.7, 137.7, 0.3299, -0.3757, -18.7874, 16.4935, 16.4935
149.04, (52.118,-15.749), 149.0396, 100.0, 148.61963129661655, 147.3, 147.3, 0.2604, -0.4269, -21.3433, 13.0178, 13.0178
159.24, (50.319,-14.882), 159.2396, 100.0, 157.67961388616794, 156.96, 156.96, 0.1899, -0.4625, -23.1269, 9.4945, 9.4945
161.88, (48.611,-14.315), 161.8796, 100.0, 161.8795907930253, 161.88, 161.88, 0.1555, -0.4752, -23.7602, 7.7752, 7.7752
168.42, (46.69,-13.763), 168.4196, 100.0, 167.9995720602582, 167.04, 167.04, 0.104, -0.4891, -24.4537, 5.1978, 5.1978
171.9, (44.713,-13.463), 171.8996, 100.0, 171.89955486602895, 171.9, 171.9, 0.0705, -0.495, -24.7506, 3.5225, 3.5225
162.12, (42.959,-13.065), 162.1195, 100.0, 163.0195330565465, 164.04, 164.04, 0.146, -0.4782, -23.9102, 7.3009, 7.3009
152.76, (41.11,-12.311), 152.7595, 100.0, 153.11951761278468, 154.26, 154.26, 0.2261, -0.446, -22.2989, 11.3031, 11.3031
159.78, (39.486,-11.539), 159.7795, 100.0, 158.63949743050168, 157.56, 157.56, 0.1821, -0.4657, -23.2828, 9.1057, 9.1057
161.64, (37.59,-10.9), 161.6395, 100.0, 161.63947588057513, 161.64, 161.64, 0.1575, -0.4745, -23.7274, 7.8747, 7.8747
161.64, (35.692,-10.27), 161.6395, 100.0, 161.63945850697573, 161.64, 161.64, 0.1575, -0.4745, -23.7274, 7.8747, 7.8747
162.96, (33.983,-9.705), 162.9594, 100.0, 162.29944604824638, 161.64, 161.64, 0.152, -0.4763, -23.8165, 7.6008, 7.6008
171.84, (32.029,-9.291), 171.8394, 100.0, 171.83943196698337, 171.84, 171.84, 0.071, -0.4949, -24.7469, 3.5484, 3.5484
171.18, (30.247,-9.036), 171.1794, 100.0, 171.83941439906766, 171.84, 171.84, 0.071, -0.4949, -24.7469, 3.5484, 3.5484
161.64, (28.307,-8.562), 161.6394, 100.0, 161.63939922620952, 162.36, 162.36, 0.1575, -0.4745, -23.7274, 7.8747, 7.8747
161.64, (26.409,-7.932), 161.6394, 100.0, 161.63938269176984, 161.64, 161.64, 0.1575, -0.4745, -23.7274, 7.8747, 7.8747
161.64, (24.7,-7.365), 161.6394, 100.0, 161.6393719417779, 161.64, 161.64, 0.1575, -0.4745, -23.7274, 7.8747, 7.8747
152.88, (22.848,-6.618), 152.8794, 100.0, 153.59935792501696, 154.62, 154.62, 0.2223, -0.4479, -22.3928, 11.1159, 11.1159
151.56, (21.088,-5.668), 151.5593, 100.0, 151.55934353501758, 151.56, 151.56, 0.2381, -0.4397, -21.9829, 11.906, 11.906
159.66, (19.462,-4.899), 159.6593, 100.0, 158.93932701747337, 157.62, 157.62, 0.1797, -0.4666, -23.3301, 8.9836, 8.9836
156.96, (17.897,-4.34), 156.9593, 100.0, 157.25931083435552, 158.28, 158.28, 0.1303, -0.3108, -15.5402, 6.5134, 6.5134
150.36, (17.087,-3.933), 150.3593, 100.0, 151.37929088232048, 151.38, 151.38, 0.0867, -0.1589, -7.9442, 4.3349, 4.3349
141.18, (16.807,-3.754), 141.1793, 100.0, 141.17926964229838, 141.84, 141.84, 0.0031, -0.0039, -0.1948, 0.1567, 0.1567
141.18, (16.807,-3.754), 141.1793, 100.0, 141.17925716612734, 180, 180, 0, -0, -0, 0, 0
141.18, (16.807,-3.754), 141.1792, 100.0, 141.17923861436302, 180, 180, 0, -0, -0, 0, 0
141.9, (16.807,-3.754), 141.8992, 100.0, 141.17922390032786, 180, 180, 0, -0, -0, 0, 0
151.44, (16.807,-3.754), 151.4392, 100.0, 151.43920580464555, 180, 180, 0, -0, -0, 0, 0
159.66, (16.807,-3.754), 159.6592, 100.0, 158.99918653033896, 180, 180, 0, -0, -0, 0, 0
161.7, (16.807,-3.754), 161.6992, 100.0, 161.69916596553475, 180, 180, 0, -0, -0, 0, 0
161.7, (16.807,-3.754), 161.6991, 100.0, 161.69914490908752, 180, 180, 0, -0, -0, 0, 0
161.7, (16.807,-3.754), 161.6991, 100.0, 161.69913698528916, 180, 180, 0, -0, -0, 0, 0
153.66, (16.807,-3.754), 153.6591, 100.0, 154.37912043051875, 180, 180, 0, -0, -0, 0, 0
151.5, (16.807,-3.754), 151.4991, 100.0, 151.4990980987522, 180, 180, 0, -0, -0, 0, 0
145.44, (16.807,-3.754), 145.4391, 100.0, 146.45907892128167, 180, 180, 0, -0, -0, 0, 0
141.3, (16.807,-3.754), 141.2991, 100.0, 141.29906321007095, 180, 180, 0, -0, -0, 0, 0
138.78, (16.807,-3.754), 138.779, 100.0, 139.1990493345656, 180, 180, 0, -0, -0, 0, 0
131.22, (16.807,-3.754), 131.219, 100.0, 131.21903354823647, 180, 180, 0, -0, -0, 0, 0
126, (16.807,-3.754), 125.999, 100.0, 126.35901670339732, 180, 180, 0, -0, -0, 0, 0
120.96, (16.807,-3.754), 120.959, 100.0, 120.95900190116316, 180, 180, 0, -0, -0, 0, 0
110.88, (16.807,-3.754), 110.879, 100.0, 111.95898772425645, 180, 180, 0, -0, -0, 0, 0
110.88, (16.807,-3.754), 110.879, 100.0, 110.87897312394753, 180, 180, 0, -0, -0, 0, 0
110.88, (16.807,-3.754), 110.879, 100.0, 110.87895908921833, 180, 180, 0, -0, -0, 0, 0
110.88, (16.807,-3.754), 110.8789, 100.0, 110.8789436411869, 180, 180, 0, -0, -0, 0, 0
117.9, (16.807,-3.754), 117.8989, 100.0, 117.59892327284906, 180, 180, 0, -0, -0, 0, 0
121.02, (16.807,-3.754), 121.0189, 100.0, 121.01890434631994, 180, 180, 0, -0, -0, 0, 0
127.44, (16.807,-3.754), 127.4389, 100.0, 126.65889015659957, 180, 180, 0, -0, -0, 0, 0
131.4, (16.807,-3.754), 131.3989, 100.0, 131.39887384834537, 180, 180, 0, -0, -0, 0, 0
131.4, (16.807,-3.754), 131.3989, 100.0, 131.39885699110079, 180, 180, 0, -0, -0, 0, 0
123.48, (16.807,-3.754), 123.4788, 100.0, 124.13884387040473, 180, 180, 0, -0, -0, 0, 0
121.68, (16.807,-3.754), 121.6788, 100.0, 121.67882303542191, 180, 180, 0, -0, -0, 0, 0
131.7, (16.807,-3.754), 131.6988, 100.0, 131.33880897439323, 180, 180, 0, -0, -0, 0, 0
131.7, (16.807,-3.754), 131.6988, 100.0, 131.6987914186035, 180, 180, 0, -0, -0, 0, 0
131.7, (16.807,-3.754), 131.6988, 100.0, 131.6987777456403, 180, 180, 0, -0, -0, 0, 0
131.7, (16.807,-3.754), 131.6988, 100.0, 131.69875944774094, 180, 180, 0, -0, -0, 0, 0
128.88, (16.807,-3.754), 128.8787, 100.0, 129.65874038009323, 180, 180, 0, -0, -0, 0, 0
121.5, (16.807,-3.754), 121.4987, 100.0, 121.49872441109815, 180, 180, 0, -0, -0, 0, 0
115.02, (16.807,-3.754), 115.0187, 100.0, 115.3787048689433, 180, 180, 0, -0, -0, 0, 0
107.46, (16.807,-3.754), 107.4587, 100.0, 108.47869548681003, 180, 180, 0, -0, -0, 0, 0
101.22, (16.807,-3.754), 101.2187, 100.0, 101.21867927109126, 180, 180, 0, -0, -0, 0, 0
101.22, (16.807,-3.754), 101.2187, 100.0, 101.21866311173365, 180, 180, 0, -0, -0, 0, 0
101.22, (16.807,-3.754), 101.2186, 100.0, 101.21863952103462, 180, 180, 0, -0, -0, 0, 0
Rotation, Location, Gyro Rotation, Sensor Optical Flow, Battery Level, Yaw, Pitch, Roll, Vy, Vx, AccX, AccY
0, (0.071,0), 360, 100.0, 360.0000010945739, 0, 0, 0, 0.177, 8.85, 0, 0
0, (0.071,0), 360, 100.0, 359.99999223468535, 0, 0, 0, 0, 0, 0, 0
0, (0.071,0), 360, 100.0, 359.9999784174219, 0, 0, 0, 0, 0, 0, 0
0, (0.071,0), 360, 100.0, 359.999970121076, 0, 0, 0, 0, 0, 0, 0
0, (0.071,0), 360, 100.0, 359.99996051132746, 0, 0, 0, 0, 0, 0, 0
0, (0.071,0), 359.9999, 100.0, 359.9999472760128, 0, 0, 0, 0, 0, 0, 0
0, (0.071,0), 359.9999, 100.0, 359.9999288353837, 0, 0, 0, 0, 0, 0, 0
0, (0.071,0), 359.9999, 100.0, 359.9999166778115, 0, 0, 0, 0, 0, 0, 0
0, (0.071,0), 359.9999, 100.0, 359.99989994470315, 0, 0, 0, 0, 0, 0, 0
0, (0.071,0), 359.9999, 100.0, 359.9998878369993, 0, 0, 0, 0, 0, 0, 0
0, (0.071,0), 359.9999, 100.0, 359.9998720857751, 0, 0, 0, 0, 0, 0, 0
0, (0.071,0), 359.9999, 100.0, 359.9998553039626, 0, 0, 0, 0, 0, 0, 0
0, (0.071,0), 359.9998, 100.0, 359.99984955415897, 0, 0, 0, 0, 0, 0, 0
Rotation, Location, Gyro Rotation, Sensor Optical Flow, Battery Level, Yaw, Pitch, Roll, Vy, Vx, AccX, AccY
0, (0.067,0), 360, 100.0, 360.0000027883913, 0, 0, 0, 0.168, 8.4, 0, 0
0, (0.067,0), 360, 100.0, 359.99999479057453, 0, 0, 0, 0, 0, 0, 0
0, (0.067,0), 360, 100.0, 359.9999758964686, 0, 0, 0, 0, 0, 0, 0
0, (0.067,0), 360, 100.0, 359.9999636050395, 0, 0, 0, 0, 0, 0, 0
0, (0.067,0), 360, 100.0, 359.9999543732025, 0, 0, 0, 0, 0, 0, 0
0, (0.067,0), 359.9999, 100.0, 359.9999430267301, 0, 0, 0, 0, 0, 0, 0
0, (0.067,0), 359.9999, 100.0, 359.9999284866076, 0, 0, 0, 0, 0, 0, 0
0, (0.067,0), 359.9999, 100.0, 359.99990924323805, 0, 0, 0, 0, 0, 0, 0
0, (0.067,0), 359.9999, 100.0, 359.99989510046703, 0, 0, 0, 0, 0, 0, 0
0, (0.067,0), 359.9999, 100.0, 359.9998789320895, 0, 0, 0, 0, 0, 0, 0
0, (0.067,0), 359.9999, 100.0, 359.9998734017071, 0, 0, 0, 0, 0, 0, 0
9.6, (0.548,0.066), 9.5999, 100.0, 9.899857464873287, 10.26, 10.26, 0.0356, 0.2039, 10.1959, 1.7795, 1.7795
0.24, (1.655,0.133), 0.2398, 100.0, 0.23984319644818075, 0.24, 0.24, 0.0016, 0.386, 19.2998, 0.0808, 0.0808
6.72, (3.335,0.208), 6.7198, 100.0, 6.359822305872137, 5.28, 5.28, 0.0554, 0.4969, 24.8461, 2.7694, 2.7694
9.42, (5.109,0.515), 9.4198, 100.0, 10.139807972998119, 10.5, 10.5, 0.088, 0.4922, 24.6095, 4.4013, 4.4013
0.42, (6.502,0.628), 0.4198, 100.0, 0.4197934781913929, 1.08, 1.08, 0.0037, 0.5, 24.9993, 0.1833, 0.1833
354.18, (8.301,0.603), 354.1802, 100.0, 356.1602054276434, -2.82, -2.82, -0.0335, 0.4989, 24.9439, -1.6743, -1.6743
350.16, (9.089,0.466), 350.1602, 100.0, 350.1601997020281, -9.84, -9.84, -0.0854, 0.4926, 24.6322, -4.2724, -4.2724
354.84, (11.062,0.139), 354.8402, 100.0, 354.8401815677287, -8.4, -8.4, -0.045, 0.498, 24.8987, -2.2484, -2.2484
0.36, (11.862,0.13), 0.3602, 100.0, 0.3601711761104338, 0.36, 0.36, 0.0031, 0.5, 24.9995, 0.1571, 0.1571
0.36, (13.262,0.139), 0.3602, 100.0, 0.36015582808964186, 0.36, 0.36, 0.0031, 0.5, 24.9995, 0.1571, 0.1571
0.36, (14.462,0.146), 0.3601, 100.0, 0.3601474971999003, 0.36, 0.36, 0.0031, 0.5, 24.9995, 0.1571, 0.1571
0.36, (15.862,0.155), 0.3601, 100.0, 0.3601350027449204, 0.36, 0.36, 0.0031, 0.5, 24.9995, 0.1571, 0.1571
0.36, (16.862,0.162), 0.3601, 100.0, 0.3601262063512477, 0.36, 0.36, 0.0031, 0.5, 24.9995, 0.1571, 0.1571
2.88, (18.462,0.18), 2.8801, 100.0, 2.100114588753707, 1.02, 1.02, 0.0183, 0.4997, 24.9832, 0.9161, 0.9161
8.52, (20.245,0.407), 8.5201, 100.0, 9.600100633665452, 10.62, 10.62, 0.0834, 0.493, 24.6499, 4.1692, 4.1692
0.3, (21.641,0.501), 0.3001, 100.0, 0.30009117185545964, 0.84, 0.84, 0.0026, 0.5, 24.9997, 0.1309, 0.1309
0.3, (22.641,0.506), 0.3001, 100.0, 0.3000830196952125, 0.3, 0.3, 0.0026, 0.5, 24.9997, 0.1309, 0.1309
8.7, (24.636,0.61), 8.7001, 100.0, 7.5000622841311815, 6.42, 6.42, 0.0653, 0.4957, 24.7861, 3.2632, 3.2632
1.98, (25.629,0.719), 1.9801, 100.0, 3.060052918364139, 4.14, 4.14, 0.0267, 0.4993, 24.9644, 1.3345, 1.3345
352.62, (26.826,0.678), 353.1, 100.0, 354.48004162027934, -4.92, -4.92, -0.0523, 0.4973, 24.863, -2.6132, -2.6132
349.8, (27.615,0.545), 350.28, 100.0, 350.28003366927624, -10.2, -10.2, -0.0885, 0.4921, 24.6049, -4.4271, -4.4271
349.8, (28.796,0.332), 350.28, 100.0, 350.2800232373971, -10.2, -10.2, -0.0885, 0.4921, 24.6049, -4.4271, -4.4271
349.8, (30.568,0.014), 350.28, 100.0, 350.28001038504624, -10.2, -10.2, -0.0885, 0.4921, 24.6049, -4.4271, -4.4271
349.8, (32.339,-0.305), 350.28, 100.0, 350.2799921679086, -10.2, -10.2, -0.0885, 0.4921, 24.6049, -4.4271, -4.4271
349.8, (34.308,-0.659), 350.28, 100.0, 350.27997326873964, -10.2, -10.2, -0.0885, 0.4921, 24.6049, -4.4271, -4.4271
342.48, (36.062,-1.054), 342.96, 100.0, 343.97995181759063, -15.42, -15.42, -0.142, 0.4794, 23.9705, -7.1004, -7.1004
332.64, (37.909,-1.814), 333.1199, 100.0, 333.479933763924, -25.98, -25.98, -0.2298, 0.4441, 22.2034, -11.4895, -11.4895
329.52, (39.466,-2.718), 329.9999, 100.0, 329.9999211712435, -30.48, -30.48, -0.2536, 0.4309, 21.5452, -12.6809, -12.6809
329.52, (41.017,-3.631), 329.9999, 100.0, 329.9999065084023, -30.48, -30.48, -0.2536, 0.4309, 21.5452, -12.6809, -12.6809
329.52, (42.741,-4.645), 329.9999, 100.0, 329.99988997199404, -30.48, -30.48, -0.2536, 0.4309, 21.5452, -12.6809, -12.6809
321.48, (44.232,-5.65), 321.9599, 100.0, 322.25987541674846, -37.14, -37.14, -0.3093, 0.3928, 19.641, -15.4671, -15.4671
317.52, (45.75,-6.952), 317.9999, 100.0, 318.41985665247097, -41.04, -41.04, -0.335, 0.3712, 18.5611, -16.7477, -16.7477
309.18, (46.961,-8.281), 309.6598, 100.0, 309.65984670474813, -50.82, -50.82, -0.3876, 0.3159, 15.794, -19.3791, -19.3791
316.08, (48.155,-9.626), 316.5598, 100.0, 315.8998331931199, -45.6, -45.6, -0.351, 0.3561, 17.8068, -17.5476, -17.5476
318.84, (49.506,-10.816), 319.3198, 100.0, 319.6798162399954, -40.8, -40.8, -0.3267, 0.3785, 18.9249, -16.3355, -16.3355
309.12, (50.891,-12.254), 309.5998, 100.0, 309.59979682657985, -49.86, -49.86, -0.3879, 0.3155, 15.7737, -19.3957, -19.3957
314.34, (52.055,-13.626), 314.8198, 100.0, 313.7397793035925, -47.82, -47.82, -0.3641, 0.3427, 17.1328, -18.2063, -18.2063
323.94, (53.564,-14.935), 324.4198, 100.0, 324.0597615275767, -37.44, -37.44, -0.2968, 0.4023, 20.1172, -14.8425, -14.8425
329.46, (55.091,-15.888), 329.9398, 100.0, 329.9397500700407, -30.54, -30.54, -0.2541, 0.4306, 21.5319, -12.7035, -12.7035
339.54, (56.896,-16.742), 340.0197, 100.0, 340.0197300236367, -21.48, -21.48, -0.1748, 0.4685, 23.4229, -8.7388, -8.7388
339.54, (58.582,-17.371), 340.0197, 100.0, 340.0197158194873, -20.46, -20.46, -0.1748, 0.4685, 23.4229, -8.7388, -8.7388
343.44, (60.276,-17.979), 343.9197, 100.0, 343.19970131354995, -18.42, -18.42, -0.1485, 0.4774, 23.8716, -7.426, -7.426
346.26, (62.225,-18.422), 346.7397, 100.0, 347.03968368640477, -12.36, -12.36, -0.1162, 0.4863, 24.3153, -5.8107, -5.8107
339.3, (63.932,-18.991), 339.7797, 100.0, 339.7796684678051, -20.7, -20.7, -0.1767, 0.4677, 23.3861, -8.8369, -8.8369
343.92, (65.816,-19.659), 344.3997, 100.0, 344.39965334580387, -17.1, -17.1, -0.1385, 0.4804, 24.0219, -6.9245, -6.9245
354.06, (67.307,-19.953), 354.5396, 100.0, 353.8196401693361, -7.68, -7.68, -0.0409, 0.3506, 17.5309, -2.047, -2.047
4.32, (68.331,-19.979), 4.7996, 100.0, 4.439621210152853, 2.76, 2.76, 0.0122, 0.1756, 8.779, 0.6077, 0.6077
14.82, (68.652,-19.935), 15.2996, 100.0, 14.939603007213819, 13.44, 13.44, 0.0002, 0.001, 0.0484, 0.0125, 0.0125
24.9, (68.652,-19.935), 25.3796, 100.0, 24.71958882682218, 0, 0, 0, 0, 0, 0, 0
35.1, (68.652,-19.935), 35.5796, 100.0, 34.49957164925689, 0, 0, 0, 0, 0, 0, 0
45.84, (68.652,-19.935), 46.3196, 100.0, 45.239552702158804, 0, 0, 0, 0, 0, 0, 0
56.04, (68.652,-19.935), 56.5195, 100.0, 55.79953693934072, 0, 0, 0, 0, 0, 0, 0
66.42, (68.652,-19.935), 66.8995, 100.0, 66.5395132333327, 0, 0, 0, 0, 0, 0, 0
76.62, (68.652,-19.935), 77.0995, 100.0, 76.01949399837618, 0, 0, 0, 0, 0, 0, 0
86.94, (68.652,-19.935), 87.4195, 100.0, 87.11947400151398, 0, 0, 0, 0, 0, 0, 0
96.9, (68.652,-19.935), 97.3795, 100.0, 96.71945937508866, 180, 180, 0, -0, -0, 0, 0
107.22, (68.652,-19.935), 107.6994, 100.0, 107.3394437934383, 180, 180, 0, -0, -0, 0, 0
117.6, (68.652,-19.935), 118.0794, 100.0, 117.71942342524491, 180, 180, 0, -0, -0, 0, 0
127.74, (68.652,-19.935), 128.2194, 100.0, 127.79940640591722, 180, 180, 0, -0, -0, 0, 0
138.18, (68.652,-19.935), 138.6594, 100.0, 137.57939017600114, 180, 180, 0, -0, -0, 0, 0
148.32, (68.652,-19.935), 148.7994, 100.0, 148.43936937267526, 180, 180, 0, -0, -0, 0, 0
158.1, (68.652,-19.935), 158.5794, 100.0, 158.27935497910855, 180, 180, 0, -0, -0, 0, 0
166.56, (68.6,-19.922), 167.0393, 100.0, 167.03933998592896, 165.42, 165.42, 0.0144, -0.0603, -3.0151, 0.7205, 0.7205
174.84, (68.047,-19.85), 175.3193, 100.0, 175.31932217559876, 174.84, 174.84, 0.0207, -0.2291, -11.4534, 1.0343, 1.0343
174.84, (66.907,-19.747), 175.3193, 100.0, 175.31930248340888, 174.84, 174.84, 0.0352, -0.3894, -19.4708, 1.7583, 1.7583
174.84, (65.031,-19.578), 175.3193, 100.0, 175.31928222304504, 174.84, 174.84, 0.045, -0.498, -24.8987, 2.2484, 2.2484
174.84, (63.238,-19.416), 175.3193, 100.0, 175.31926984201317, 174.84, 174.84, 0.045, -0.498, -24.8987, 2.2484, 2.2484
174.84, (61.246,-19.236), 175.3193, 100.0, 175.3192510008568, 174.84, 174.84, 0.045, -0.498, -24.8987, 2.2484, 2.2484
174.84, (59.454,-19.074), 175.3192, 100.0, 175.31923852025318, 174.84, 174.84, 0.045, -0.498, -24.8987, 2.2484, 2.2484
174.84, (57.462,-18.894), 175.3192, 100.0, 175.31922225948105, 174.84, 174.84, 0.045, -0.498, -24.8987, 2.2484, 2.2484
174.84, (55.47,-18.715), 175.3192, 100.0, 175.31920658192607, 174.84, 174.84, 0.045, -0.498, -24.8987, 2.2484, 2.2484
183.48, (53.672,-18.669), 183.9592, 100.0, 183.23919141912748, -178.32, -178.32, -0.0241, -0.4994, -24.971, -1.2038, -1.2038
185.1, (51.68,-18.841), 185.5792, 100.0, 185.57917133406718, -174.9, -174.9, -0.0444, -0.498, -24.901, -2.2224, -2.2224
185.1, (49.887,-19.001), 185.5792, 100.0, 185.57915264516612, -174.9, -174.9, -0.0444, -0.498, -24.901, -2.2224, -2.2224
179.46, (47.892,-19.129), 179.9391, 100.0, 180.6591314666367, -178.74, -178.74, -0.0016, -0.5, -24.9999, -0.0785, -0.0785
177.42, (46.096,-19.011), 177.8991, 100.0, 176.99911582504333, 175.44, 175.44, 0.0304, -0.4991, -24.9539, 1.5175, 1.5175
183.24, (44.099,-19.071), 183.7191, 100.0, 183.71910100845366, -175.38, -175.38, -0.0283, -0.4992, -24.96, -1.413, -1.413
173.58, (42.302,-19.011), 174.0591, 100.0, 174.71908709743136, 175.02, 175.02, 0.0502, -0.4975, -24.8738, 2.509, 2.509
163.74, (40.345,-18.612), 164.2191, 100.0, 164.57907311408746, 165, 165, 0.137, -0.4809, -24.0435, 6.849, 6.849
154.8, (38.491,-17.87), 155.279, 100.0, 155.2790489167553, 154.8, 154.8, 0.2129, -0.4524, -22.6207, 10.6445, 10.6445
154.8, (36.862,-17.103), 155.279, 100.0, 155.27903452596064, 154.8, 154.8, 0.2129, -0.4524, -22.6207, 10.6445, 10.6445
154.8, (35.052,-16.252), 155.279, 100.0, 155.27902389975304, 154.8, 154.8, 0.2129, -0.4524, -22.6207, 10.6445, 10.6445
154.8, (33.424,-15.485), 155.279, 100.0, 155.27901232914581, 154.8, 154.8, 0.2129, -0.4524, -22.6207, 10.6445, 10.6445
154.8, (31.614,-14.634), 155.279, 100.0, 155.2789929718534, 154.8, 154.8, 0.2129, -0.4524, -22.6207, 10.6445, 10.6445
150.6, (29.995,-13.847), 151.079, 100.0, 152.09897753081054, 152.58, 152.58, 0.2377, -0.4399, -21.9954, 11.8829, 11.8829
144.6, (28.163,-12.631), 145.079, 100.0, 145.07896056676935, 144.6, 144.6, 0.2896, -0.4076, -20.3782, 14.482, 14.482
144.6, (26.696,-11.589), 145.0789, 100.0, 145.0789493586486, 144.6, 144.6, 0.2896, -0.4076, -20.3782, 14.482, 14.482
152.1, (21.943,-8.655), 152.5789, 100.0, 152.57889903077165, 153.12, 153.12, 0.234, -0.4419, -22.0941, 11.6982, 11.6982
145.5, (20.431,-7.681), 145.9789, 100.0, 145.25888139569702, 144.78, 144.78, 0.2884, -0.4085, -20.4236, 14.4179, 14.4179
155.04, (18.687,-6.708), 155.5189, 100.0, 155.5188622793958, 154.62, 154.62, 0.211, -0.4533, -22.6651, 10.5496, 10.5496
152.64, (17.346,-6.077), 153.1188, 100.0, 153.7788467307785, 154.32, 154.32, 0.1523, -0.3029, -15.1426, 7.616, 7.616
144.96, (16.516,-5.567), 145.4388, 100.0, 145.43883211837525, 144.96, 144.96, 0.0953, -0.1359, -6.7956, 4.7654, 4.7654
144.96, (16.293,-5.411), 145.4388, 100.0, 145.43881557980725, 144.96, 144.96, 0, -0, -0, 0, 0
147.9, (16.293,-5.411), 148.3788, 100.0, 147.59880308567992, 180, 180, 0, -0, -0, 0, 0
155.34, (16.293,-5.411), 155.8188, 100.0, 155.81878769657476, 180, 180, 0, -0, -0, 0, 0
155.34, (16.293,-5.411), 155.8188, 100.0, 155.81876767468756, 180, 180, 0, -0, -0, 0, 0
148.98, (16.293,-5.411), 149.4587, 100.0, 150.5387497170815, 180, 180, 0, -0, -0, 0, 0
140.04, (16.293,-5.411), 140.5187, 100.0, 140.87873029498778, 180, 180, 0, -0, -0, 0, 0
135.12, (16.293,-5.411), 135.5987, 100.0, 135.59871756280415, 180, 180, 0, -0, -0, 0, 0
135.12, (16.293,-5.411), 135.5987, 100.0, 135.59870114074184, 180, 180, 0, -0, -0, 0, 0
135.12, (16.293,-5.411), 135.5987, 100.0, 135.59868029361851, 180, 180, 0, -0, -0, 0, 0
135.12, (16.293,-5.411), 135.5987, 100.0, 135.59866421958316, 180, 180, 0, -0, -0, 0, 0
132.24, (16.293,-5.411), 132.7186, 100.0, 133.07864705558046, 180, 180, 0, -0, -0, 0, 0
125.04, (16.293,-5.411), 125.5186, 100.0, 125.51862884188627, 180, 180, 0, -0, -0, 0, 0
125.04, (16.293,-5.411), 125.5186, 100.0, 125.51861528941527, 180, 180, 0, -0, -0, 0, 0
125.04, (16.293,-5.411), 125.5186, 100.0, 125.51859934133108, 180, 180, 0, -0, -0, 0, 0
125.04, (16.293,-5.411), 125.5186, 100.0, 125.51858706156467, 180, 180, 0, -0, -0, 0, 0
125.04, (16.293,-5.411), 125.5186, 100.0, 125.51857271519101, 180, 180, 0, -0, -0, 0, 0
133.62, (16.293,-5.411), 134.0986, 100.0, 133.73855078838932, 180, 180, 0, -0, -0, 0, 0
135.3, (16.293,-5.411), 135.7785, 100.0, 135.77853616616974, 180, 180, 0, -0, -0, 0, 0
126.6, (16.293,-5.411), 127.0785, 100.0, 127.73852450279614, 180, 180, 0, -0, -0, 0, 0
132.12, (16.293,-5.411), 132.5985, 100.0, 132.23850044625098, 180, 180, 0, -0, -0, 0, 0
135.3, (16.293,-5.411), 135.7785, 100.0, 135.77848637442014, 180, 180, 0, -0, -0, 0, 0
127.68, (16.293,-5.411), 128.1585, 100.0, 128.93847258490413, 180, 180, 0, -0, -0, 0, 0
132.06, (16.293,-5.411), 132.5385, 100.0, 132.53845646319633, 180, 180, 0, -0, -0, 0, 0
135.18, (16.293,-5.411), 135.6584, 100.0, 135.65844152995365, 180, 180, 0, -0, -0, 0, 0
135.18, (16.293,-5.411), 135.6584, 100.0, 135.6584275819701, 180, 180, 0, -0, -0, 0, 0
135.18, (16.293,-5.411), 135.6584, 100.0, 135.65841464480363, 180, 180, 0, -0, -0, 0, 0
125.82, (16.293,-5.411), 126.2984, 100.0, 127.01839872549523, 180, 180, 0, -0, -0, 0, 0
125.1, (16.293,-5.411), 125.5784, 100.0, 125.57838512226252, 180, 180, 0, -0, -0, 0, 0
125.1, (16.293,-5.411), 125.5784, 100.0, 125.57837113726823, 180, 180, 0, -0, -0, 0, 0
125.1, (16.293,-5.411), 125.5784, 100.0, 125.57835739835747, 180, 180, 0, -0, -0, 0, 0
125.1, (16.293,-5.411), 125.5783, 100.0, 125.5783430429243, 180, 180, 0, -0, -0, 0, 0
125.1, (16.293,-5.411), 125.5783, 100.0, 125.57832376793056, 180, 180, 0, -0, -0, 0, 0
115.92, (16.293,-5.411), 116.3983, 100.0, 116.39831336569023, 180, 180, 0, -0, -0, 0, 0
110.7, (16.293,-5.411), 111.1783, 100.0, 111.83829900750492, 180, 180, 0, -0, -0, 0, 0
104.76, (16.293,-5.411), 105.2383, 100.0, 105.23828777765031, 180, 180, 0, -0, -0, 0, 0
104.76, (16.293,-5.411), 105.2383, 100.0, 105.23826875954705, 180, 180, 0, -0, -0, 0, 0
104.76, (16.293,-5.411), 105.2383, 100.0, 105.23825437161602, 180, 180, 0, -0, -0, 0, 0
95.7, (16.293,-5.411), 96.1782, 100.0, 96.53823874176102, 180, 180, 0, -0, -0, 0, 0
94.68, (16.293,-5.411), 95.1582, 100.0, 95.15822100394783, 180, 180, 0, -0, -0, 0, 0
93.24, (16.293,-5.411), 93.7182, 100.0, 94.078202653745, 180, 180, 0, -0, -0, 0, 0
84.54, (16.293,-5.411), 85.0182, 100.0, 85.01818979003392, 0, 0, 0, 0, 0, 0, 0
84.54, (16.293,-5.411), 85.0182, 100.0, 85.01816564166785, 0, 0, 0, 0, 0, 0, 0
94.26, (16.293,-5.411), 94.7381, 100.0, 94.31814281002698, 180, 180, 0, -0, -0, 0, 0
94.68, (16.293,-5.411), 95.1581, 100.0, 95.15813342247665, 180, 180, 0, -0, -0, 0, 0
92.52, (16.293,-5.411), 92.9981, 100.0, 93.41811652527372, 180, 180, 0, -0, -0, 0, 0
84.66, (16.293,-5.411), 85.1381, 100.0, 85.1380984407437, 0, 0, 0, 0, 0, 0, 0
84.66, (16.293,-5.411), 85.1381, 100.0, 85.1380783038382, 0, 0, 0, 0, 0, 0, 0
84.66, (16.293,-5.411), 85.1381, 100.0, 85.13806385623437, 0, 0, 0, 0, 0, 0, 0
93.12, (16.293,-5.411), 93.598, 100.0, 92.8180454609241, 180, 180, 0, -0, -0, 0, 0
95.58, (16.293,-5.411), 96.058, 100.0, 96.0580291651267, 180, 180, 0, -0, -0, 0, 0
86.7, (16.293,-5.411), 87.178, 100.0, 87.53801509292468, 0, 0, 0, 0, 0, 0, 0
85.38, (16.293,-5.411), 85.858, 100.0, 85.8579973482369, 0, 0, 0, 0, 0, 0, 0
93.9, (16.293,-5.411), 94.378, 100.0, 93.71797838475193, 180, 180, 0, -0, -0, 0, 0
95.7, (16.293,-5.411), 96.178, 100.0, 96.17795972410266, 180, 180, 0, -0, -0, 0, 0
95.7, (16.293,-5.411), 96.1779, 100.0, 96.17794200096313, 180, 180, 0, -0, -0, 0, 0
99.24, (16.293,-5.411), 99.7179, 100.0, 99.41792884072608, 180, 180, 0, -0, -0, 0, 0
105.78, (16.293,-5.411), 106.2579, 100.0, 106.257912514842, 180, 180, 0, -0, -0, 0, 0
97.56, (16.293,-5.411), 98.0379, 100.0, 98.45789408972371, 180, 180, 0, -0, -0, 0, 0
96.24, (16.293,-5.411), 96.7179, 100.0, 96.117873879034, 180, 180, 0, -0, -0, 0, 0
105.84, (16.293,-5.411), 106.3179, 100.0, 106.31785871053184, 180, 180, 0, -0, -0, 0, 0
105.84, (16.293,-5.411), 106.3178, 100.0, 106.31784138721547, 180, 180, 0, -0, -0, 0, 0
114.3, (16.293,-5.411), 114.7778, 100.0, 114.05782126779613, 180, 180, 0, -0, -0, 0, 0
116.04, (16.293,-5.411), 116.5178, 100.0, 116.51780393835101, 180, 180, 0, -0, -0, 0, 0
116.04, (16.293,-5.411), 116.5178, 100.0, 116.51780104574097, 180, 180, 0, -0, -0, 0, 0
Rotation, Location, Gyro Rotation, Sensor Optical Flow, Battery Level, Yaw, Pitch, Roll, Vy, Vx, AccX, AccY
0, (0.069,0), 360, 100.0, 360.0000025732273, 0, 0, 0, 0.173, 8.65, 0, 0
0, (0.069,0), 360, 100.0, 359.9999893078332, 0, 0, 0, 0, 0, 0, 0
0, (0.069,0), 360, 100.0, 359.99997412221126, 0, 0, 0, 0, 0, 0, 0
0, (0.069,0), 360, 100.0, 359.9999621552999, 0, 0, 0, 0, 0, 0, 0
0, (0.069,0), 359.9999, 100.0, 359.99994875143426, 0, 0, 0, 0, 0, 0, 0
0, (0.069,0), 359.9999, 100.0, 359.9999300917117, 0, 0, 0, 0, 0, 0, 0
0, (0.069,0), 359.9999, 100.0, 359.99991261248056, 0, 0, 0, 0, 0, 0, 0
0, (0.069,0), 359.9999, 100.0, 359.99989837957963, 0, 0, 0, 0, 0, 0, 0
0, (0.069,0), 359.9999, 100.0, 359.9998844315496, 0, 0, 0, 0, 0, 0, 0
0, (0.069,0), 359.9999, 100.0, 359.9998693021672, 0, 0, 0, 0, 0, 0, 0
0, (0.069,0), 359.9998, 100.0, 359.999848647876, 0, 0, 0, 0, 0, 0, 0
0, (0.069,0), 359.9998, 100.0, 359.9998375439841, 0, 0, 0, 0, 0, 0, 0
0, (0.069,0), 359.9998, 100.0, 359.99982071872154, 0, 0, 0, 0, 0, 0, 0
0, (0.069,0), 359.9998, 100.0, 359.999809027558, 0, 0, 0, 0, 0, 0, 0
0, (0.069,0), 359.9998, 100.0, 359.9997978662381, 0, 0, 0, 0, 0, 0, 0
0, (0.069,0), 359.9998, 100.0, 359.9997806330911, 0, 0, 0, 0, 0, 0, 0
0.72, (0.074,0), 0.7198, 100.0, 0.35976701913375736, 0, 0, 0.0001, 0.011, 0.55, 0.0035, 0.0035
10.5, (0.449,0.048), 10.4998, 100.0, 10.139750398141931, 9.42, 9.42, 0.0317, 0.1772, 8.8594, 1.5845, 1.5845
20.4, (1.415,0.331), 20.3997, 100.0, 20.399736614132912, 19.32, 19.32, 0.1244, 0.3346, 16.7305, 6.222, 6.222
30.42, (2.863,1.024), 30.4197, 100.0, 29.759722852718827, 28.68, 28.68, 0.2482, 0.4341, 21.7028, 12.4092, 12.4092
20.64, (4.478,1.814), 20.6397, 100.0, 21.659715705697526, 22.62, 22.62, 0.1845, 0.4647, 23.2348, 9.2275, 9.2275
10.44, (6.4,2.354), 10.4397, 100.0, 10.799696242907238, 11.88, 11.88, 0.0937, 0.4911, 24.5572, 4.6845, 4.6845
360.12, (8.191,2.515), 360.1203, 100.0, 0.8996808848212123, 1.74, 1.74, 0.0079, 0.4999, 24.9969, 0.3927, 0.3927
350.16, (10.181,2.342), 350.1603, 100.0, 350.16030476151866, -8.88, -8.88, -0.0854, 0.4926, 24.6322, -4.2724, -4.2724
339.54, (11.914,1.866), 339.5403, 100.0, 340.26029222703596, -18.78, -18.78, -0.1689, 0.4706, 23.5309, -8.4438, -8.4438
329.04, (13.537,1.093), 329.0403, 100.0, 330.1202764606285, -28.74, -28.74, -0.2491, 0.4335, 21.6768, -12.4546, -12.4546
318.72, (14.995,0.041), 318.7203, 100.0, 319.56026219958056, -39.42, -39.42, -0.3243, 0.3805, 19.0271, -16.2163, -16.2163
308.22, (16.368,-1.409), 308.2202, 100.0, 308.5202464484696, -50.4, -50.4, -0.3912, 0.3114, 15.5697, -19.5598, -19.5598
300.18, (17.354,-2.913), 300.1802, 100.0, 300.1802310731218, -59.82, -59.82, -0.4322, 0.2514, 12.568, -21.6113, -21.6113
300.18, (18.36,-4.642), 300.1802, 100.0, 300.18021467001125, -59.82, -59.82, -0.4322, 0.2514, 12.568, -21.6113, -21.6113
301.98, (19.27,-6.194), 301.9802, 100.0, 301.62020459082777, -59.4, -59.4, -0.4258, 0.2621, 13.1071, -21.2886, -21.2886
310.5, (20.484,-7.781), 310.5002, 100.0, 310.50018485976403, -49.5, -49.5, -0.3802, 0.3247, 16.2362, -19.0101, -19.0101
318.12, (21.72,-9.087), 318.1202, 100.0, 317.4601681729672, -43.56, -43.56, -0.3381, 0.3684, 18.4201, -16.9026, -16.9026
320.88, (23.11,-10.231), 320.8802, 100.0, 320.88015487472745, -39.12, -39.12, -0.3155, 0.3879, 19.3957, -15.7737, -15.7737
320.88, (24.661,-11.493), 320.8801, 100.0, 320.88013805611786, -39.12, -39.12, -0.3155, 0.3879, 19.3957, -15.7737, -15.7737
320.88, (26.058,-12.629), 320.8801, 100.0, 320.8801249096223, -39.12, -39.12, -0.3155, 0.3879, 19.3957, -15.7737, -15.7737
326.76, (27.482,-13.729), 326.7601, 100.0, 325.7401079980007, -35.28, -35.28, -0.2815, 0.4132, 20.6623, -14.0737, -14.0737
330.96, (29.212,-14.73), 330.9601, 100.0, 330.9600930025897, -29.04, -29.04, -0.2427, 0.4371, 21.857, -12.1355, -12.1355
330.96, (30.786,-15.604), 330.9601, 100.0, 330.96007590368026, -29.04, -29.04, -0.2427, 0.4371, 21.857, -12.1355, -12.1355
323.1, (32.48,-16.663), 323.1001, 100.0, 323.4000608935332, -35.58, -35.58, -0.2981, 0.4014, 20.0704, -14.9056, -14.9056
321.24, (33.879,-17.795), 321.24, 100.0, 320.88004311201456, -39.12, -39.12, -0.3155, 0.3879, 19.3957, -15.7737, -15.7737
331.08, (35.541,-18.902), 331.08, 100.0, 331.08002165997925, -29.94, -29.94, -0.2418, 0.4376, 21.8824, -12.0897, -12.0897
334.2, (37.122,-19.762), 334.2, 100.0, 333.42001151614755, -27.9, -27.9, -0.2237, 0.4472, 22.3578, -11.1862, -11.1862
341.1, (38.984,-20.489), 341.1, 100.0, 341.09999416505786, -18.9, -18.9, -0.162, 0.473, 23.6521, -8.0979, -8.0979
339, (40.685,-21.075), 339, 100.0, 340.07997739265903, -18.9, -18.9, -0.1704, 0.4701, 23.5042, -8.5177, -8.5177
330.84, (42.484,-21.943), 330.84, 100.0, 330.8399613973421, -29.16, -29.16, -0.2436, 0.4366, 21.8316, -12.1813, -12.1813
329.82, (44.056,-22.822), 329.8199, 100.0, 330.47994362714695, -29.16, -29.16, -0.2464, 0.4351, 21.7546, -12.3182, -12.3182
320.64, (45.688,-23.972), 320.6399, 100.0, 320.63992423185357, -39, -39, -0.3171, 0.3866, 19.3294, -15.8548, -15.8548
323.46, (47.085,-25.107), 323.4599, 100.0, 322.439907747012, -38.64, -38.64, -0.3048, 0.3964, 19.8179, -15.2398, -15.2398
333.54, (48.52,-26.005), 333.5399, 100.0, 333.2398913972687, -27.84, -27.84, -0.1544, 0.3063, 15.3132, -7.7219, -7.7219
343.86, (49.358,-26.339), 343.8599, 100.0, 343.13987528098494, -17.94, -17.94, -0.0516, 0.1703, 8.5174, -2.5813, -2.5813
354, (49.673,-26.413), 353.9999, 100.0, 353.9998574487943, -7.08, -7.08, -0, 0, 0, -0, -0
4.44, (49.673,-26.413), 4.4398, 100.0, 3.7198406970507625, 0, 0, 0, 0, 0, 0, 0
15.06, (49.673,-26.413), 15.0598, 100.0, 14.759822864784669, 0, 0, 0, 0, 0, 0, 0
25.02, (49.673,-26.413), 25.0198, 100.0, 24.299803544558166, 0, 0, 0, 0, 0, 0, 0
35.7, (49.673,-26.413), 35.6998, 100.0, 34.97978418200521, 0, 0, 0, 0, 0, 0, 0
45.84, (49.673,-26.413), 45.8398, 100.0, 44.8197677032803, 0, 0, 0, 0, 0, 0, 0
56.04, (49.673,-26.413), 56.0398, 100.0, 56.039752628030406, 0, 0, 0, 0, 0, 0, 0
66.3, (49.673,-26.413), 66.2997, 100.0, 65.99973614659949, 0, 0, 0, 0, 0, 0, 0
76.98, (49.673,-26.413), 76.9797, 100.0, 75.59971976434194, 0, 0, 0, 0, 0, 0, 0
87.06, (49.673,-26.413), 87.0597, 100.0, 86.27970533772964, 0, 0, 0, 0, 0, 0, 0
97.2, (49.673,-26.413), 97.1997, 100.0, 96.17969374256886, 180, 180, 0, -0, -0, 0, 0
107.76, (49.673,-26.413), 107.7597, 100.0, 106.97967327726536, 180, 180, 0, -0, -0, 0, 0
117.78, (49.673,-26.413), 117.7797, 100.0, 117.77965733861319, 180, 180, 0, -0, -0, 0, 0
128.16, (49.673,-26.413), 128.1596, 100.0, 127.49963855926998, 180, 180, 0, -0, -0, 0, 0
138.12, (49.673,-26.413), 138.1196, 100.0, 137.8196179463293, 180, 180, 0, -0, -0, 0, 0
148.32, (49.621,-26.378), 148.3196, 100.0, 147.59959826069618, 146.52, 146.52, 0.0354, -0.0557, -2.7863, 1.7682, 1.7682
153.6, (49.046,-26.065), 153.5996, 100.0, 153.29958260735125, 152.28, 152.28, 0.1087, -0.2162, -10.8098, 5.4368, 5.4368
161.34, (47.935,-25.633), 161.3396, 100.0, 161.33956608633838, 161.34, 161.34, 0.1293, -0.3828, -19.1382, 6.463, 6.463
161.34, (46.122,-25.021), 161.3396, 100.0, 161.33955245008113, 161.34, 161.34, 0.16, -0.4737, -23.6858, 7.9988, 7.9988
152.64, (44.459,-24.338), 152.6395, 100.0, 153.29954126761834, 154.38, 154.38, 0.2247, -0.4467, -22.3343, 11.233, 11.233
159.18, (42.656,-23.476), 159.1795, 100.0, 158.81952557784052, 157.74, 157.74, 0.1806, -0.4662, -23.3112, 9.0325, 9.0325
156.18, (40.966,-22.859), 156.1795, 100.0, 156.89951151338826, 157.98, 157.98, 0.1962, -0.4599, -22.9955, 9.8084, 9.8084
150.96, (39.371,-22.026), 150.9595, 100.0, 150.95949465472896, 150.96, 150.96, 0.2427, -0.4371, -21.857, 12.1355, 12.1355
151.62, (37.622,-21.056), 151.6195, 100.0, 151.25947791885832, 150.96, 150.96, 0.2404, -0.4384, -21.9203, 12.0209, 12.0209
161.1, (35.783,-20.277), 161.0995, 100.0, 161.09946333547094, 160.8, 160.8, 0.162, -0.473, -23.6521, 8.0979, 8.0979
153.6, (34.111,-19.613), 153.5994, 100.0, 154.3794475598727, 155.4, 155.4, 0.2162, -0.4508, -22.542, 10.81, 10.81
150.9, (32.357,-18.653), 150.8994, 100.0, 150.8994294062735, 150.9, 150.9, 0.2432, -0.4369, -21.8443, 12.1584, 12.1584
150.9, (30.784,-17.778), 150.8994, 100.0, 150.89941641944617, 150.9, 150.9, 0.2432, -0.4369, -21.8443, 12.1584, 12.1584
150.9, (29.037,-16.805), 150.8994, 100.0, 150.89940042760742, 150.9, 150.9, 0.2432, -0.4369, -21.8443, 12.1584, 12.1584
144.9, (27.326,-15.772), 144.8994, 100.0, 144.89937921579158, 145.92, 145.92, 0.2875, -0.4091, -20.4537, 14.3751, 14.3751
145.86, (25.892,-14.685), 145.8594, 100.0, 145.49936666970214, 144.48, 144.48, 0.2832, -0.4121, -20.6032, 14.1602, 14.1602
146.34, (24.182,-13.649), 146.3394, 100.0, 146.63935448055264, 147.78, 147.78, 0.2749, -0.4176, -20.8808, 13.7474, 13.7474
140.7, (22.762,-12.544), 140.6993, 100.0, 140.69933396740416, 140.7, 140.7, 0.3167, -0.3869, -19.346, 15.8345, 15.8345
132.54, (21.298,-11.185), 132.5393, 100.0, 132.53931672537826, 133.62, 133.62, 0.3684, -0.3381, -16.9026, 18.4201, 18.4201
122.82, (20.195,-9.765), 122.8193, 100.0, 123.89929632070003, 124.92, 124.92, 0.415, -0.2789, -13.9436, 20.7503, 20.7503
120.36, (19.175,-8.045), 120.3593, 100.0, 120.3592802698809, 120.36, 120.36, 0.4314, -0.2527, -12.6358, 21.5717, 21.5717
116.64, (18.504,-6.816), 116.6393, 100.0, 116.63926987397016, 116.64, 116.64, 0.4469, -0.2242, -11.2096, 22.346, 22.346
106.98, (18.028,-5.609), 106.9793, 100.0, 107.75925512999835, 108.78, 108.78, 0.3228, -0.1034, -5.1703, 16.1422, 16.1422
Rotation, Location, Gyro Rotation, Sensor Optical Flow, Battery Level, Yaw, Pitch, Roll, Vy, Vx, AccX, AccY
0, (0.064,0), 360, 100.0, 360.0000014896214, 0, 0, 0, 0.16, 8, 0, 0
0, (0.064,0), 360, 100.0, 359.9999833269125, 0, 0, 0, 0, 0, 0, 0
0, (0.064,0), 360, 100.0, 359.9999737748783, 0, 0, 0, 0, 0, 0, 0
0, (0.064,0), 360, 100.0, 359.99995547240945, 0, 0, 0, 0, 0, 0, 0
0, (0.064,0), 359.9999, 100.0, 359.9999401495826, 0, 0, 0, 0, 0, 0, 0
0, (0.064,0), 359.9999, 100.0, 359.9999253206036, 0, 0, 0, 0, 0, 0, 0
0, (0.064,0), 359.9999, 100.0, 359.99990606149623, 0, 0, 0, 0, 0, 0, 0
0, (0.064,0), 359.9999, 100.0, 359.9998893639488, 0, 0, 0, 0, 0, 0, 0
0, (0.064,0), 359.9999, 100.0, 359.99988215134084, 0, 0, 0, 0, 0, 0, 0
0, (0.064,0), 359.9999, 100.0, 359.9998660605286, 0, 0, 0, 0, 0, 0, 0
0, (0.064,0), 359.9999, 100.0, 359.9998515842976, 0, 0, 0, 0, 0, 0, 0
0, (0.064,0), 359.9998, 100.0, 359.99984190244766, 0, 0, 0, 0, 0, 0, 0
6.6, (0.206,0.01), 6.5998, 100.0, 5.9398267491765395, 4.86, 4.86, 0.0109, 0.1044, 5.2218, 0.5433, 0.5433
4.14, (0.91,0.109), 4.1398, 100.0, 5.459811161751701, 6.48, 6.48, 0.0257, 0.2688, 13.4387, 1.2845, 1.2845
360.06, (2.409,0.131), 0.0602, 100.0, 0.06018637787225297, 0.06, 0.06, 0.0005, 0.458, 22.9, 0.024, 0.024
354.12, (4.198,0.077), 354.8402, 100.0, 355.50017265680174, -4.14, -4.14, -0.0455, 0.4979, 24.8963, -2.2745, -2.2745
348.24, (5.973,-0.217), 348.9602, 100.0, 349.9801579540447, -10.44, -10.44, -0.0932, 0.4912, 24.5621, -4.6588, -4.6588
339.36, (7.887,-0.786), 340.0801, 100.0, 340.08013688587624, -20.64, -20.64, -0.1762, 0.4679, 23.3953, -8.8124, -8.8124
339.36, (9.572,-1.421), 340.0801, 100.0, 340.0801220662365, -20.64, -20.64, -0.1762, 0.4679, 23.3953, -8.8124, -8.8124
339.36, (11.443,-2.126), 340.0801, 100.0, 340.08010466261305, -20.64, -20.64, -0.1762, 0.4679, 23.3953, -8.8124, -8.8124
348.84, (13.169,-2.629), 349.5601, 100.0, 348.7800902651849, -13.02, -13.02, -0.1034, 0.4892, 24.4591, -5.1722, -5.1722
352.86, (15.14,-2.969), 353.5801, 100.0, 353.5800725834831, -8.28, -8.28, -0.0621, 0.4961, 24.8061, -3.1074, -3.1074
0.48, (16.937,-3.043), 1.2001, 100.0, 0.5400577879133419, -0.18, -0.18, -0.0016, 0.5, 24.9999, -0.0785, -0.0785
9.96, (18.925,-2.851), 10.68, 100.0, 10.680038505757908, 9.3, 9.3, 0.0865, 0.4925, 24.6232, 4.324, 4.324
5.46, (20.702,-2.569), 6.18, 100.0, 6.840018476228576, 7.14, 7.14, 0.0533, 0.4972, 24.8575, 2.6653, 2.6653
360.3, (22.5,-2.514), 0.42, 100.0, 0.4199971523796141, 0.3, 0.3, 0.0026, 0.5, 24.9997, 0.1309, 0.1309
3.12, (24.3,-2.496), 3.24, 100.0, 2.159982791234316, 0.96, 0.96, 0.0178, 0.4997, 24.9842, 0.8899, 0.8899
8.04, (26.282,-2.241), 8.16, 100.0, 8.57997026355849, 9.66, 9.66, 0.0736, 0.4946, 24.728, 3.678, 3.678
0.18, (28.078,-2.141), 0.3, 100.0, 0.2999570115247007, 0.18, 0.18, 0.0016, 0.5, 24.9999, 0.0785, 0.0785
0.18, (30.078,-2.134), 0.2999, 100.0, 0.2999463942367471, 0.18, 0.18, 0.0016, 0.5, 24.9999, 0.0785, 0.0785
0.18, (31.878,-2.129), 0.2999, 100.0, 0.2999321857911981, 0.18, 0.18, 0.0016, 0.5, 24.9999, 0.0785, 0.0785
0.18, (33.678,-2.123), 0.2999, 100.0, 0.29991430556502313, 0.18, 0.18, 0.0016, 0.5, 24.9999, 0.0785, 0.0785
0.18, (35.678,-2.117), 0.2999, 100.0, 0.29989960200514765, 0.18, 0.18, 0.0016, 0.5, 24.9999, 0.0785, 0.0785
7.92, (37.672,-2.006), 8.0399, 100.0, 8.039880564797784, 6.54, 6.54, 0.0689, 0.4952, 24.7615, 3.4448, 3.4448
3.18, (39.455,-1.769), 3.2999, 100.0, 3.959860883884889, 4.86, 4.86, 0.0335, 0.4989, 24.9439, 1.6743, 1.6743
354.18, (41.254,-1.795), 354.0601, 100.0, 355.14013915101526, -3.72, -3.72, -0.0413, 0.4983, 24.9145, -2.0659, -2.0659
344.64, (43.219,-2.152), 344.5201, 100.0, 344.8201214286323, -13.62, -13.62, -0.1299, 0.4828, 24.1414, -6.4958, -6.4958
335.16, (44.911,-2.762), 335.0401, 100.0, 336.12010279783533, -22.74, -22.74, -0.2015, 0.4576, 22.881, -10.0727, -10.0727
325.56, (46.651,-3.743), 325.4401, 100.0, 325.80008450233817, -32.7, -32.7, -0.2802, 0.4141, 20.7064, -14.0087, -14.0087
319.62, (48.21,-4.994), 319.5001, 100.0, 319.500066718512, -40.38, -40.38, -0.3239, 0.3809, 19.0441, -16.1964, -16.1964
310.44, (49.496,-6.251), 310.32, 100.0, 311.4000492439035, -47.46, -47.46, -0.3744, 0.3314, 16.572, -18.7181, -18.7181
314.34, (50.797,-7.768), 314.22, 100.0, 313.8600328750221, -47.4, -47.4, -0.3598, 0.3472, 17.3602, -17.9896, -17.9896
315.06, (52.071,-9.04), 314.58, 100.0, 314.5800157815773, -44.94, -44.94, -0.3532, 0.3539, 17.6962, -17.6591, -17.6591
315.06, (53.486,-10.453), 314.58, 100.0, 314.5800002268235, -44.94, -44.94, -0.3532, 0.3539, 17.6962, -17.6591, -17.6591
315.06, (54.76,-11.725), 314.58, 100.0, 314.5799862051165, -44.94, -44.94, -0.3532, 0.3539, 17.6962, -17.6591, -17.6591
321.9, (56.081,-12.946), 321.42, 100.0, 320.63997094803574, -40.26, -40.26, -0.3138, 0.3892, 19.4616, -15.6923, -15.6923
325.32, (57.712,-14.103), 324.84, 100.0, 324.83995229547105, -34.68, -34.68, -0.2845, 0.4112, 20.5586, -14.2248, -14.2248
331.26, (59.391,-15.187), 330.7799, 100.0, 330.77993468971187, -30.06, -30.06, -0.2404, 0.4384, 21.9203, -12.0209, -12.0209
336, (61.019,-15.954), 335.5199, 100.0, 335.1599246803892, -24.36, -24.36, -0.2062, 0.4555, 22.7743, -10.3117, -10.3117
345.78, (62.717,-16.544), 345.2999, 100.0, 344.5799049000848, -15.96, -15.96, -0.1289, 0.4831, 24.1549, -6.4452, -6.4452
340.14, (64.638,-17.09), 339.6599, 100.0, 339.95988337311917, -18.54, -18.54, -0.1657, 0.4664, 23.3217, -8.2861, -8.2861
335.4, (66.471,-17.888), 334.9199, 100.0, 334.9198648802287, -24.6, -24.6, -0.2081, 0.4546, 22.7309, -10.407, -10.407
344.1, (68.147,-18.539), 343.6199, 100.0, 342.5398561530537, -18.12, -18.12, -0.146, 0.4782, 23.9102, -7.3009, -7.3009
345.42, (70.081,-19.048), 344.9398, 100.0, 344.93983918109603, -14.58, -14.58, -0.1259, 0.4839, 24.1949, -6.2933, -6.2933
344.7, (72.017,-19.552), 344.2198, 100.0, 344.57982151270613, -14.58, -14.58, -0.1289, 0.4831, 24.1549, -6.4452, -6.4452
335.4, (73.701,-20.181), 334.9198, 100.0, 334.91980416584283, -23.88, -23.88, -0.2081, 0.4546, 22.7309, -10.407, -10.407
335.4, (75.338,-20.93), 334.9198, 100.0, 334.9197916194772, -24.6, -24.6, -0.2081, 0.4546, 22.7309, -10.407, -10.407
335.4, (77.156,-21.762), 334.9198, 100.0, 334.91977547822586, -24.6, -24.6, -0.2081, 0.4546, 22.7309, -10.407, -10.407
335.4, (78.793,-22.512), 334.9198, 100.0, 334.9197600633669, -24.6, -24.6, -0.2081, 0.4546, 22.7309, -10.407, -10.407
343.8, (80.653,-23.24), 343.3197, 100.0, 342.5997424522144, -17.88, -17.88, -0.1455, 0.4784, 23.9178, -7.2759, -7.2759
338.46, (82.563,-23.828), 337.9797, 100.0, 338.2797261793593, -20.16, -20.16, -0.1811, 0.466, 23.3018, -9.0569, -9.0569
335.58, (84.206,-24.562), 335.0997, 100.0, 335.09971191438353, -24.42, -24.42, -0.2067, 0.4553, 22.7635, -10.3356, -10.3356
335.58, (86.027,-25.389), 335.0997, 100.0, 335.09969634501135, -24.42, -24.42, -0.2067, 0.4553, 22.7635, -10.3356, -10.3356
341.52, (87.873,-26.156), 341.0397, 100.0, 341.03967600975807, -19.56, -19.56, -0.1585, 0.4742, 23.7109, -7.9243, -7.9243
348.06, (89.613,-26.615), 347.5797, 100.0, 346.4996575753468, -14.1, -14.1, -0.1126, 0.4871, 24.3573, -5.6323, -5.6323
355.98, (91.594,-26.871), 355.4996, 100.0, 355.49963713967117, -4.02, -4.02, -0.0351, 0.4988, 24.9385, -1.7526, -1.7526
355.98, (93.589,-27.012), 355.4996, 100.0, 355.4996206163099, -4.02, -4.02, -0.0351, 0.4988, 24.9385, -1.7526, -1.7526
355.98, (95.385,-27.138), 355.4996, 100.0, 355.4996051024709, -4.02, -4.02, -0.0351, 0.4988, 24.9385, -1.7526, -1.7526
354.48, (97.38,-27.281), 353.9996, 100.0, 354.7795909403938, -4.02, -4.02, -0.0413, 0.4983, 24.9145, -2.0659, -2.0659
344.94, (99.343,-27.65), 344.4596, 100.0, 344.4595748635183, -14.34, -14.34, -0.1299, 0.4828, 24.1414, -6.4958, -6.4958
335.34, (101.029,-28.272), 334.8596, 100.0, 335.21955813916384, -23.4, -23.4, -0.2058, 0.4557, 22.7851, -10.2879, -10.2879
345.36, (102.911,-28.942), 344.8795, 100.0, 344.8795405801566, -15.66, -15.66, -0.1264, 0.4838, 24.1883, -6.3186, -6.3186
355.32, (104.682,-29.252), 354.8395, 100.0, 353.75952618497615, -6.72, -6.72, -0.0502, 0.4975, 24.8738, -2.509, -2.509
4.62, (106.679,-29.27), 4.1395, 100.0, 3.8395075169287587, 3.24, 3.24, 0.0377, 0.4986, 24.929, 1.8832, 1.8832
14.7, (108.648,-28.937), 14.2195, 100.0, 13.859490897234522, 13.26, 13.26, 0.1238, 0.4844, 24.2211, 6.1919, 6.1919
22.02, (110.36,-28.385), 21.5395, 100.0, 21.179476481418252, 20.52, 20.52, 0.1845, 0.4647, 23.2348, 9.2275, 9.2275
25.86, (112.169,-27.533), 25.3795, 100.0, 25.379463740582906, 25.86, 25.86, 0.2181, 0.4499, 22.4966, 10.9043, 10.9043
30.9, (113.708,-26.749), 30.4194, 100.0, 29.699444141517723, 29.16, 29.16, 0.2152, 0.37, 18.4992, 10.7582, 10.7582
40.56, (114.787,-25.982), 40.0794, 100.0, 40.0794266617972, 39.18, 39.18, 0.1626, 0.1899, 9.4966, 8.128, 8.128
50.82, (115.204,-25.566), 50.3394, 100.0, 49.55940691987136, 49.08, 49.08, 0.0705, 0.0591, 2.9544, 3.5259, 3.5259
61.08, (115.25,-25.506), 60.5994, 100.0, 60.23938731168625, 0, 0, 0, 0, 0, 0, 0
71.52, (115.25,-25.506), 71.0394, 100.0, 69.95937775684193, 0, 0, 0, 0, 0, 0, 0
76.26, (115.25,-25.506), 75.7794, 100.0, 76.19936239485476, 0, 0, 0, 0, 0, 0, 0
68.52, (115.258,-25.486), 68.0393, 100.0, 68.0393436495687, 68.52, 68.52, 0.0335, 0.0132, 0.6591, 1.675, 1.675
66.42, (115.422,-25.075), 65.9393, 100.0, 66.65933165613568, 68.1, 68.1, 0.1788, 0.0754, 3.7683, 8.9381, 8.9381
58.32, (115.984,-24.057), 57.8393, 100.0, 57.83931293768305, 58.32, 58.32, 0.3157, 0.1948, 9.742, 15.7859, 15.7859
58.32, (116.844,-22.664), 57.8393, 100.0, 57.839288321758296, 58.32, 58.32, 0.4255, 0.2626, 13.1294, 21.2749, 21.2749
49.38, (118,-21.035), 48.8993, 100.0, 49.679271979076866, 51.24, 51.24, 0.3839, 0.3203, 16.0161, 19.1959, 19.1959
48.24, (119.33,-19.541), 47.7593, 100.0, 47.759252086737156, 48.24, 48.24, 0.373, 0.333, 16.6503, 18.6485, 18.6485
48.24, (120.529,-18.198), 47.7592, 100.0, 47.759236645391184, 48.24, 48.24, 0.373, 0.333, 16.6503, 18.6485, 18.6485
58.08, (121.728,-16.601), 57.5992, 100.0, 57.29921893556949, 56.76, 56.76, 0.423, 0.2666, 13.3293, 21.1502, 21.1502
58.44, (122.67,-15.067), 57.9592, 100.0, 57.95920643674887, 58.44, 58.44, 0.426, 0.2617, 13.0848, 21.3023, 21.3023
65.82, (123.629,-13.315), 65.3392, 100.0, 65.33919128504414, 64.68, 64.68, 0.4561, 0.2048, 10.2401, 22.8066, 22.8066
61.86, (124.353,-11.668), 61.3792, 100.0, 62.39917713246903, 63.9, 63.9, 0.445, 0.2279, 11.3964, 22.2513, 22.2513
52.5, (125.422,-9.98), 52.0192, 100.0, 52.73916141785189, 54.3, 54.3, 0.4005, 0.2994, 14.9686, 20.0235, 20.0235
48.42, (126.728,-8.466), 47.9391, 100.0, 47.93914781657938, 48.42, 48.42, 0.374, 0.3318, 16.5916, 18.7007, 18.7007
57.96, (127.81,-7.03), 57.4791, 100.0, 56.75913462852677, 56.16, 56.16, 0.4205, 0.2706, 13.528, 21.0236, 21.0236
50.04, (128.96,-5.397), 49.5591, 100.0, 49.559116194343204, 51.3, 51.3, 0.3832, 0.3211, 16.0563, 19.1623, 19.1623
40.44, (130.222,-4.116), 39.9591, 100.0, 40.91910543770497, 42.42, 42.42, 0.3307, 0.3751, 18.7528, 16.5328, 16.5328
36, (131.789,-2.874), 35.5191, 100.0, 36.11908254566716, 37.92, 37.92, 0.2981, 0.4014, 20.0704, 14.9056, 14.9056
28.26, (133.497,-1.837), 27.7791, 100.0, 27.7790655469041, 28.26, 28.26, 0.2367, 0.4404, 22.0202, 11.8368, 11.8368
28.26, (135.083,-0.985), 27.7791, 100.0, 27.779052269077397, 28.26, 28.26, 0.2367, 0.4404, 22.0202, 11.8368, 11.8368
29.76, (136.842,-0.038), 29.279, 100.0, 28.13904313517461, 28.26, 28.26, 0.2366, 0.4336, 21.6821, 11.8313, 11.8313
40.2, (138.148,0.849), 39.719, 100.0, 38.63902706885725, 38.1, 38.1, 0.2013, 0.2475, 12.3744, 10.0636, 10.0636
32.1, (138.84,1.386), 31.619, 100.0, 31.979012433877912, 33.48, 33.48, 0.0741, 0.1164, 5.822, 3.7033, 3.7033
39.84, (138.994,1.486), 39.359, 100.0, 38.63899237594237, 0, 0, 0, 0, 0, 0, 0
30.48, (138.994,1.486), 29.999, 100.0, 29.998975700459795, 0, 0, 0, 0, 0, 0, 0
39.78, (138.994,1.486), 39.299, 100.0, 38.6389576432551, 0, 0, 0, 0, 0, 0, 0
34.92, (139.156,1.607), 34.4389, 100.0, 34.438941056161624, 35.88, 35.88, 0.071, 0.1017, 5.0837, 3.5491, 3.5491
31.62, (139.81,2.015), 31.1389, 100.0, 31.13892782461157, 31.62, 31.62, 0.1484, 0.241, 12.0493, 7.4186, 7.4186
33.72, (141.1,2.818), 33.2389, 100.0, 32.8789118108955, 32.34, 32.34, 0.2541, 0.3859, 19.2939, 12.7026, 12.7026
40.32, (142.651,4.061), 39.8389, 100.0, 40.19889442291406, 41.76, 41.76, 0.3259, 0.3792, 18.959, 16.2958, 16.2958
31.68, (144.121,5.098), 31.1989, 100.0, 31.198882595446804, 32.04, 32.04, 0.2626, 0.4255, 21.2749, 13.1294, 13.1294
28.14, (145.832,6.132), 27.6589, 100.0, 28.378862588292463, 29.94, 29.94, 0.2413, 0.4379, 21.895, 12.0668, 12.0668
18.66, (147.667,6.921), 18.1788, 100.0, 18.53884322113624, 20.04, 20.04, 0.1629, 0.4727, 23.6351, 8.1475, 8.1475
9.3, (149.413,7.351), 8.8188, 100.0, 9.898825843099267, 11.1, 11.1, 0.0901, 0.4918, 24.5909, 4.5044, 4.5044
0.3, (151.404,7.511), 0.1812, 100.0, 0.18118536574155542, 1.32, 1.32, 0.0026, 0.5, 24.9997, 0.1309, 0.1309
0.3, (153.404,7.521), 0.1812, 100.0, 0.18116931903432262, 0.3, 0.3, 0.0026, 0.5, 24.9997, 0.1309, 0.1309
0.3, (155.204,7.531), 0.1812, 100.0, 0.18115762873044067, 0.3, 0.3, 0.0026, 0.5, 24.9997, 0.1309, 0.1309
350.82, (157.197,7.395), 351.1811, 100.0, 351.5411455537581, -7.44, -7.44, -0.0767, 0.4941, 24.7044, -3.8333, -3.8333
355.2, (159.174,7.098), 355.5611, 100.0, 355.5611260931247, -5.82, -5.82, -0.0418, 0.4982, 24.9123, -2.0919, -2.0919
359.94, (160.973,7.066), 0.3011, 100.0, 0.3011175553539906, -0.06, -0.06, -0.0005, 0.5, 25, -0.0262, -0.0262
352.14, (162.968,6.959), 352.6189, 100.0, 352.9788771900602, -6.48, -6.48, -0.0653, 0.4957, 24.7861, -3.2632, -3.2632
349.56, (164.937,6.608), 350.0389, 100.0, 350.038861661952, -10.44, -10.44, -0.0906, 0.4917, 24.5861, -4.5301, -4.5301
349.56, (166.904,6.246), 350.0388, 100.0, 350.03884750376886, -10.44, -10.44, -0.0906, 0.4917, 24.5861, -4.5301, -4.5301
350.64, (168.674,5.92), 351.1188, 100.0, 350.33882934911554, -10.44, -10.44, -0.088, 0.4922, 24.6095, -4.4013, -4.4013
359.64, (170.666,5.767), 0.1188, 100.0, 0.11880983461243828, -0.72, -0.72, -0.0031, 0.5, 24.9995, -0.1571, -0.1571
4.68, (172.664,5.805), 5.1588, 100.0, 5.1587932651911474, 3.6, 3.6, 0.0408, 0.4983, 24.9166, 2.0398, 2.0398
9.9, (174.443,6.076), 10.3788, 100.0, 10.378775896426466, 9.9, 9.9, 0.086, 0.4926, 24.6277, 4.2982, 4.2982
20.04, (176.373,6.591), 20.5188, 100.0, 20.15875898918314, 18.6, 18.6, 0.1684, 0.4708, 23.5397, 8.4192, 8.4192
29.58, (178.012,7.33), 30.0587, 100.0, 29.038743698221886, 27.48, 27.48, 0.239, 0.4392, 21.9579, 11.952, 11.952
26.52, (179.753,8.313), 26.9987, 100.0, 27.29872644291783, 27.84, 27.84, 0.2256, 0.4462, 22.3107, 11.2797, 11.2797
20.22, (181.608,9.058), 20.6987, 100.0, 20.69870895908559, 20.22, 20.22, 0.1728, 0.4692, 23.4593, 8.6406, 8.6406
20.22, (183.297,9.68), 20.6987, 100.0, 20.698690323607174, 20.22, 20.22, 0.1728, 0.4692, 23.4593, 8.6406, 8.6406
20.22, (184.986,10.302), 20.6987, 100.0, 20.698673433360508, 20.22, 20.22, 0.1728, 0.4692, 23.4593, 8.6406, 8.6406
20.22, (186.862,10.994), 20.6987, 100.0, 20.698656477033943, 20.22, 20.22, 0.1728, 0.4692, 23.4593, 8.6406, 8.6406
20.22, (188.551,11.616), 20.6986, 100.0, 20.698641027185968, 20.22, 20.22, 0.1728, 0.4692, 23.4593, 8.6406, 8.6406
20.22, (190.428,12.307), 20.6986, 100.0, 20.698627946162667, 20.22, 20.22, 0.1728, 0.4692, 23.4593, 8.6406, 8.6406
29.1, (192.07,13.04), 29.5786, 100.0, 29.158613271700194, 27.66, 27.66, 0.24, 0.4387, 21.9328, 11.9979, 11.9979
22.5, (193.305,13.696), 22.9786, 100.0, 23.938604556150686, 25.68, 25.68, 0.1991, 0.4587, 22.9335, 9.9527, 9.9527
13.56, (195.01,14.267), 14.0386, 100.0, 14.03858677358772, 15.84, 15.84, 0.1172, 0.4861, 24.3031, 5.8616, 5.8616
9.36, (196.979,14.615), 9.8386, 100.0, 9.838571924449665, 9.36, 9.36, 0.0813, 0.4933, 24.6671, 4.0659, 4.0659
9.36, (198.953,14.941), 9.8386, 100.0, 9.83855642960753, 9.36, 9.36, 0.0813, 0.4933, 24.6671, 4.0659, 4.0659
4.62, (200.733,15.201), 5.0985, 100.0, 5.878538374077937, 6.42, 6.42, 0.0471, 0.4978, 24.889, 2.3527, 2.3527
4.14, (202.671,15.266), 4.8585, 100.0, 4.078524353957468, 2.34, 2.34, 0.0256, 0.4362, 21.8124, 1.2806, 1.2806
14.52, (203.999,15.474), 15.2385, 100.0, 14.878507274628175, 13.2, 13.2, 0.0629, 0.2492, 12.4596, 3.1435, 3.1435
24.54, (204.567,15.668), 25.2585, 100.0, 24.538486382209744, 22.8, 22.8, 0.0388, 0.0878, 4.3911, 1.9386, 1.9386
34.74, (204.642,15.705), 35.4585, 100.0, 35.03846981962193, 0, 0, 0, 0, 0, 0, 0
44.76, (204.642,15.705), 45.4785, 100.0, 44.75846008304305, 0, 0, 0, 0, 0, 0, 0
54.96, (204.642,15.705), 55.6784, 100.0, 55.018440051034915, 0, 0, 0, 0, 0, 0, 0
65.22, (204.642,15.705), 65.9384, 100.0, 65.57841973759332, 0, 0, 0, 0, 0, 0, 0
75, (204.642,15.705), 75.7184, 100.0, 75.35840295553776, 0, 0, 0, 0, 0, 0, 0
85.32, (204.642,15.705), 86.0384, 100.0, 84.9583860306107, 0, 0, 0, 0, 0, 0, 0
95.76, (204.642,15.705), 96.4784, 100.0, 95.4583656664869, 180, 180, 0, -0, -0, 0, 0
105.84, (204.642,15.705), 106.5584, 100.0, 105.77835181438489, 180, 180, 0, -0, -0, 0, 0
115.92, (204.642,15.705), 116.6383, 100.0, 116.27833438480576, 180, 180, 0, -0, -0, 0, 0
126.42, (204.642,15.705), 127.1383, 100.0, 126.77832176982714, 180, 180, 0, -0, -0, 0, 0
136.86, (204.642,15.705), 137.5783, 100.0, 137.21831112850452, 180, 180, 0, -0, -0, 0, 0
146.88, (204.642,15.705), 147.5983, 100.0, 146.87829508355446, 180, 180, 0, -0, -0, 0, 0
158.94, (204.642,15.705), 159.6583, 100.0, 158.57827786336134, 180, 180, 0, -0, -0, 0, 0
169.14, (204.642,15.705), 169.8583, 100.0, 169.13826560479197, 180, 180, 0, -0, -0, 0, 0
179.22, (204.642,15.705), 179.9382, 100.0, 179.9382449975809, 180, 180, 0, -0, -0, 0, 0
179.58, (204.381,15.707), 180.2982, 100.0, 180.2982328575908, 179.58, 179.58, 0.0011, -0.144, -7.1998, 0.0528, 0.0528
179.58, (203.426,15.714), 180.2982, 100.0, 180.2982211478289, 179.58, 179.58, 0.0023, -0.319, -15.9496, 0.1169, 0.1169
179.58, (201.764,15.726), 180.2982, 100.0, 180.29820551199222, 179.58, 179.58, 0.0036, -0.497, -24.8493, 0.1822, 0.1822
179.58, (199.964,15.739), 180.2982, 100.0, 180.2981891140352, 179.58, 179.58, 0.0037, -0.5, -24.9993, 0.1833, 0.1833
184.02, (197.965,15.718), 184.7382, 100.0, 184.3781711821761, -177.42, -177.42, -0.0319, -0.499, -24.949, -1.5959, -1.5959
188.94, (195.987,15.432), 189.6581, 100.0, 190.01814763559656, -170.34, -170.34, -0.0808, -0.4934, -24.6714, -4.0401, -4.0401
179.52, (194.193,15.31), 180.2381, 100.0, 180.53813193913265, -179.04, -179.04, 0.0016, -0.5, -24.9999, 0.0785, 0.0785
179.52, (192.193,15.327), 180.2381, 100.0, 180.2381116699201, 179.52, 179.52, 0.0042, -0.5, -24.9991, 0.2094, 0.2094
179.52, (190.393,15.342), 180.2381, 100.0, 180.23809876856882, 179.52, 179.52, 0.0042, -0.5, -24.9991, 0.2094, 0.2094
182.82, (188.393,15.341), 183.5381, 100.0, 182.93808523764434, -178.74, -178.74, -0.0194, -0.4996, -24.9812, -0.9684, -0.9684
189.6, (186.608,15.118), 190.3181, 100.0, 190.31807145600203, -170.4, -170.4, -0.0834, -0.493, -24.6499, -4.1692, -4.1692
184.14, (184.63,14.83), 184.858, 100.0, 185.51804975838772, -174.24, -174.24, -0.0418, -0.4982, -24.9123, -2.0919, -2.0919
176.28, (182.632,14.83), 176.998, 100.0, 177.298029541963, 177.6, 177.6, 0.0298, -0.4991, -24.9555, 1.4914, 1.4914
171.6, (180.851,15.085), 172.318, 100.0, 171.29801505755304, 169.5, 169.5, 0.0818, -0.4933, -24.6629, 4.0918, 4.0918
181.26, (178.858,15.214), 181.978, 100.0, 181.31800171709318, 179.52, 179.52, -0.0052, -0.5, -24.9986, -0.2618, -0.2618
189.78, (176.872,14.998), 190.498, 100.0, 190.49798168033618, -170.22, -170.22, -0.0849, -0.4927, -24.6367, -4.2466, -4.2466
196.56, (175.112,14.628), 197.278, 100.0, 196.25796510078044, -165.54, -165.54, -0.134, -0.4817, -24.0861, -6.6978, -6.6978
205.8, (173.249,13.906), 206.5179, 100.0, 206.5179479342967, -155.4, -155.4, -0.2176, -0.4502, -22.508, -10.8808, -10.8808
210.06, (171.506,12.926), 210.7779, 100.0, 210.7779319614916, -149.94, -149.94, -0.2505, -0.4328, -21.6375, -12.5227, -12.5227
215.04, (169.965,11.997), 215.7579, 100.0, 214.73791783241867, -147.12, -147.12, -0.2797, -0.4144, -20.7211, -13.9871, -13.9871
220.14, (168.404,10.748), 220.8579, 100.0, 220.85789834539048, -139.86, -139.86, -0.3223, -0.3822, -19.1118, -16.1164, -16.1164
217.74, (166.867,9.469), 218.4579, 100.0, 218.457881408334, -141.12, -141.12, -0.306, -0.3954, -19.7699, -15.302, -15.302
210.06, (165.355,8.495), 210.7779, 100.0, 210.77786913386134, -149.94, -149.94, -0.2505, -0.4328, -21.6375, -12.5227, -12.5227
210.06, (163.624,7.493), 210.7779, 100.0, 210.77785271691474, -149.94, -149.94, -0.2505, -0.4328, -21.6375, -12.5227, -12.5227
219.96, (161.982,6.357), 220.6778, 100.0, 220.6778385774796, -141.66, -141.66, -0.3211, -0.3832, -19.1623, -16.0563, -16.0563
210.9, (160.532,5.292), 211.6178, 100.0, 212.877825243699, -146.82, -146.82, -0.2661, -0.4233, -21.1641, -13.3071, -13.3071
210.24, (158.806,4.283), 210.9578, 100.0, 210.95780627911793, -149.76, -149.76, -0.2518, -0.432, -21.5981, -12.5906, -12.5906
210.24, (157.078,3.276), 210.9578, 100.0, 210.9577917752036, -149.76, -149.76, -0.2518, -0.432, -21.5981, -12.5906, -12.5906
210.24, (155.523,2.369), 210.9578, 100.0, 210.9577765267297, -149.76, -149.76, -0.2518, -0.432, -21.5981, -12.5906, -12.5906
210.24, (153.795,1.362), 210.9578, 100.0, 210.95776190523452, -149.76, -149.76, -0.2518, -0.432, -21.5981, -12.5906, -12.5906
210.24, (152.067,0.355), 210.9577, 100.0, 210.9577486105566, -149.76, -149.76, -0.2518, -0.432, -21.5981, -12.5906, -12.5906
214.08, (150.522,-0.568), 214.7977, 100.0, 213.83773118873714, -147.96, -147.96, -0.2732, -0.4188, -20.9382, -13.6599, -13.6599
220.38, (148.951,-1.803), 221.0977, 100.0, 221.09771235554913, -139.62, -139.62, -0.3239, -0.3809, -19.0441, -16.1964, -16.1964
220.38, (147.428,-3.099), 221.0977, 100.0, 221.09769210833946, -139.62, -139.62, -0.3239, -0.3809, -19.0441, -16.1964, -16.1964
214.56, (146.024,-4.224), 215.2777, 100.0, 215.93767558663208, -143.7, -143.7, -0.2884, -0.4085, -20.4236, -14.4179, -14.4179
205.02, (144.29,-5.216), 205.7377, 100.0, 206.09766152669695, -153.66, -153.66, -0.2143, -0.4517, -22.5871, -10.7155, -10.7155
200.22, (142.613,-5.868), 200.9376, 100.0, 200.93764733894423, -159.78, -159.78, -0.1728, -0.4692, -23.4593, -8.6406, -8.6406
194.28, (140.717,-6.503), 194.9976, 100.0, 195.65763312409769, -164.28, -164.28, -0.1289, -0.4831, -24.1549, -6.4452, -6.4452
190.08, (138.754,-6.881), 190.7976, 100.0, 190.79761484355785, -169.92, -169.92, -0.0875, -0.4923, -24.6141, -4.3756, -4.3756
190.08, (136.982,-7.196), 190.7976, 100.0, 190.79760134735227, -169.92, -169.92, -0.0875, -0.4923, -24.6141, -4.3756, -4.3756
197.76, (135.037,-7.651), 198.4776, 100.0, 198.47758409004368, -163.38, -163.38, -0.1525, -0.4762, -23.8086, -7.6258, -7.6258
200.1, (133.344,-8.265), 200.8176, 100.0, 200.81757179650532, -159.9, -159.9, -0.1718, -0.4695, -23.4774, -8.5915, -8.5915
197.46, (131.462,-8.94), 198.1776, 100.0, 198.53755576631752, -161.1, -161.1, -0.153, -0.476, -23.8006, -7.6507, -7.6507
190.08, (129.707,-9.335), 190.7975, 100.0, 190.79754111851338, -169.92, -169.92, -0.0875, -0.4923, -24.6141, -4.3756, -4.3756
190.08, (127.738,-9.685), 190.7975, 100.0, 190.79752648244806, -169.92, -169.92, -0.0875, -0.4923, -24.6141, -4.3756, -4.3756
190.08, (125.966,-10), 190.7975, 100.0, 190.79750982944776, -169.92, -169.92, -0.0875, -0.4923, -24.6141, -4.3756, -4.3756
180.12, (123.978,-10.194), 180.8375, 100.0, 181.49748967608414, -178.2, -178.2, -0.0068, -0.5, -24.9977, -0.3403, -0.3403
179.76, (121.978,-10.186), 180.4775, 100.0, 180.4774770893492, 179.76, 179.76, 0.0021, -0.5, -24.9998, 0.1047, 0.1047
179.76, (119.978,-10.178), 180.4775, 100.0, 180.47746107396162, 179.76, 179.76, 0.0021, -0.5, -24.9998, 0.1047, 0.1047
179.76, (118.178,-10.17), 180.4775, 100.0, 180.47745135866955, 179.76, 179.76, 0.0021, -0.5, -24.9998, 0.1047, 0.1047
183.54, (116.179,-10.188), 184.2574, 100.0, 183.8974308215325, -177.78, -177.78, -0.0277, -0.4992, -24.9615, -1.3868, -1.3868
189.9, (114.2,-10.471), 190.6174, 100.0, 190.61741087929377, -170.1, -170.1, -0.086, -0.4926, -24.6277, -4.2982, -4.2982
189.9, (112.427,-10.78), 190.6174, 100.0, 190.6173951076075, -170.1, -170.1, -0.086, -0.4926, -24.6277, -4.2982, -4.2982
189.9, (110.457,-11.124), 190.6174, 100.0, 190.61737770601871, -170.1, -170.1, -0.086, -0.4926, -24.6277, -4.2982, -4.2982
189.9, (108.683,-11.434), 190.6174, 100.0, 190.6173612859736, -170.1, -170.1, -0.086, -0.4926, -24.6277, -4.2982, -4.2982
192.42, (106.715,-11.788), 193.1374, 100.0, 192.77735162174713, -169.08, -169.08, -0.1045, -0.489, -24.4482, -5.2234, -5.2234
199.98, (104.807,-12.381), 200.6973, 100.0, 200.6973396546412, -160.02, -160.02, -0.1708, -0.4699, -23.4953, -8.5423, -8.5423
199.98, (103.115,-12.996), 200.6973, 100.0, 200.69732422853178, -160.02, -160.02, -0.1708, -0.4699, -23.4953, -8.5423, -8.5423
199.98, (101.424,-13.611), 200.6973, 100.0, 200.6973096350438, -160.02, -160.02, -0.1708, -0.4699, -23.4953, -8.5423, -8.5423
208.26, (99.589,-14.401), 208.9773, 100.0, 208.61729375755888, -153.12, -153.12, -0.234, -0.4419, -22.0941, -11.6982, -11.6982
210.06, (97.856,-15.399), 210.7773, 100.0, 210.7772729929245, -149.94, -149.94, -0.2505, -0.4328, -21.6375, -12.5227, -12.5227
213.6, (96.307,-16.316), 214.3173, 100.0, 213.59725439659624, -148.2, -148.2, -0.2714, -0.4199, -20.9952, -13.572, -13.572
220.32, (94.734,-17.549), 221.0372, 100.0, 221.0372375687187, -139.68, -139.68, -0.3235, -0.3812, -19.0611, -16.1764, -16.1764
219.06, (93.206,-18.839), 219.7772, 100.0, 219.77721822391638, -139.98, -139.98, -0.3151, -0.3882, -19.4122, -15.7533, -15.7533
210.9, (91.712,-19.84), 211.6172, 100.0, 210.8972051951269, -149.52, -149.52, -0.2514, -0.4322, -21.6113, -12.568, -12.568
220.32, (90.094,-21.011), 221.0372, 100.0, 221.0371888496031, -140.4, -140.4, -0.3235, -0.3812, -19.0611, -16.1764, -16.1764
213.24, (88.509,-22.228), 213.9572, 100.0, 213.95717267519322, -145.8, -145.8, -0.2741, -0.4182, -20.9095, -13.7037, -13.7037
210.12, (86.958,-23.14), 210.8372, 100.0, 210.83715833333943, -149.88, -149.88, -0.2509, -0.4325, -21.6244, -12.5453, -12.5453
212.64, (85.234,-24.153), 213.3571, 100.0, 213.05713858329247, -148.74, -148.74, -0.2675, -0.4224, -21.1222, -13.3736, -13.3736
218.52, (83.801,-25.241), 219.2371, 100.0, 219.8971217222491, -139.8, -139.8, -0.3159, -0.3876, -19.3791, -15.794, -15.794
210.18, (82.139,-26.348), 210.8971, 100.0, 210.89710334831557, -149.82, -149.82, -0.2514, -0.4322, -21.6113, -12.568, -12.568
199.92, (80.325,-27.184), 200.6371, 100.0, 200.6370892775028, -159, -159, -0.1704, -0.4701, -23.5042, -8.5177, -8.5177
194.1, (78.617,-27.751), 194.8171, 100.0, 195.53707040288617, -163.8, -163.8, -0.1279, -0.4834, -24.1684, -6.3946, -6.3946
189.72, (76.653,-28.123), 190.4371, 100.0, 190.4370541349923, -170.28, -170.28, -0.0844, -0.4928, -24.6411, -4.2208, -4.2208
189.72, (74.682,-28.461), 190.437, 100.0, 190.4370397005158, -170.28, -170.28, -0.0844, -0.4928, -24.6411, -4.2208, -4.2208
180.42, (72.892,-28.634), 181.137, 100.0, 181.85702486430907, -177.84, -177.84, -0.0099, -0.4999, -24.9951, -0.4974, -0.4974
171.3, (70.899,-28.504), 172.017, 100.0, 172.37701069698664, 172.74, 172.74, 0.0725, -0.4947, -24.7356, 3.6262, 3.6262
169.62, (68.931,-28.147), 170.337, 100.0, 170.3369966219736, 169.62, 169.62, 0.0901, -0.4918, -24.5909, 4.5044, 4.5044
179.64, (66.942,-27.966), 180.357, 100.0, 180.35697799346818, 178.56, 178.56, 0.0031, -0.5, -24.9995, 0.1571, 0.1571
179.64, (65.142,-27.954), 180.357, 100.0, 180.35696185385322, 179.64, 179.64, 0.0031, -0.5, -24.9995, 0.1571, 0.1571
179.64, (63.142,-27.942), 180.3569, 100.0, 180.3569404525337, 179.64, 179.64, 0.0031, -0.5, -24.9995, 0.1571, 0.1571
172.02, (61.346,-27.842), 172.7369, 100.0, 173.51692555474253, 173.82, 173.82, 0.0627, -0.4961, -24.8029, 3.1333, 3.1333
168.96, (59.379,-27.485), 169.6769, 100.0, 170.03691415430822, 169.32, 169.32, 0.0927, -0.4913, -24.5669, 4.6331, 4.6331
159.18, (57.461,-26.928), 159.8969, 100.0, 159.89689767575177, 160.14, 160.14, 0.1777, -0.4674, -23.3675, 8.8858, 8.8858
149.1, (55.843,-26.144), 149.8169, 100.0, 150.47688074251622, 150.78, 150.78, 0.2518, -0.432, -21.5981, 12.5906, 12.5906
139.68, (54.206,-24.999), 140.3969, 100.0, 141.11686374049359, 141.42, 141.42, 0.3187, -0.3853, -19.2628, 15.9356, 15.9356
145.38, (52.648,-23.748), 146.0968, 100.0, 146.09684436762308, 144.3, 144.3, 0.2841, -0.4115, -20.5735, 14.2033, 14.2033
149.22, (51.111,-22.811), 149.9368, 100.0, 149.93683076736357, 149.22, 149.22, 0.2559, -0.4296, -21.4785, 12.7936, 12.7936
149.22, (49.393,-21.787), 149.9368, 100.0, 149.93681620349238, 149.22, 149.22, 0.2559, -0.4296, -21.4785, 12.7936, 12.7936
139.62, (47.924,-20.751), 140.3368, 100.0, 141.3568025223233, 141.72, 141.72, 0.3171, -0.3866, -19.3294, 15.8548, 15.8548
138.96, (46.414,-19.44), 139.6768, 100.0, 139.6767857053188, 138.96, 138.96, 0.3283, -0.3771, -18.8563, 16.4146, 16.4146
138.96, (44.905,-18.126), 139.6768, 100.0, 139.67676518338158, 138.96, 138.96, 0.3283, -0.3771, -18.8563, 16.4146, 16.4146
138.96, (43.547,-16.945), 139.6767, 100.0, 139.67674599969482, 138.96, 138.96, 0.3283, -0.3771, -18.8563, 16.4146, 16.4146
138.96, (42.039,-15.631), 139.6767, 100.0, 139.67672862584527, 138.96, 138.96, 0.3283, -0.3771, -18.8563, 16.4146, 16.4146
132.06, (40.594,-14.251), 132.7767, 100.0, 132.77670666459397, 133.08, 133.08, 0.3712, -0.335, -16.7477, 18.5611, 18.5611
126.48, (39.462,-12.852), 127.1967, 100.0, 128.2766894845763, 128.4, 128.4, 0.3964, -0.3048, -15.2398, 19.8179, 19.8179
118.62, (38.405,-11.157), 119.3367, 100.0, 119.3366721217449, 118.62, 118.62, 0.4389, -0.2395, -11.975, 21.9454, 21.9454
118.62, (37.447,-9.401), 119.3367, 100.0, 119.33665485110338, 118.62, 118.62, 0.4389, -0.2395, -11.975, 21.9454, 21.9454
118.62, (36.585,-7.821), 119.3366, 100.0, 119.33663932241454, 118.62, 118.62, 0.4389, -0.2395, -11.975, 21.9454, 21.9454
118.62, (35.627,-6.065), 119.3366, 100.0, 119.33662451159908, 118.62, 118.62, 0.4389, -0.2395, -11.975, 21.9454, 21.9454
124.32, (34.621,-4.338), 125.0366, 100.0, 124.67660915741796, 122.88, 122.88, 0.4147, -0.2793, -13.9653, 20.7357, 20.7357
128.64, (33.519,-2.916), 129.3566, 100.0, 129.3565958909627, 128.64, 128.64, 0.3905, -0.3122, -15.6106, 19.5271, 19.5271
128.64, (32.27,-1.354), 129.3566, 100.0, 129.35657831528488, 128.64, 128.64, 0.3905, -0.3122, -15.6106, 19.5271, 19.5271
119.46, (31.141,0.294), 120.1766, 100.0, 120.53656396081648, 120.6, 120.6, 0.4338, -0.2486, -12.4319, 21.6898, 21.6898
125.64, (30.106,2.003), 126.0565, 100.0, 126.05654999026719, 124.5, 124.5, 0.4063, -0.2913, -14.5673, 20.3174, 20.3174
135.24, (28.94,3.372), 135.6565, 100.0, 134.99653862654395, 133.56, 133.56, 0.3561, -0.351, -17.5476, 17.8068, 17.8068
136.08, (27.456,4.712), 136.4965, 100.0, 136.85652113991674, 137.64, 137.64, 0.3446, -0.3623, -18.1163, 17.2278, 17.2278
129.06, (26.135,6.211), 129.4765, 100.0, 129.47650240155235, 129.06, 129.06, 0.3882, -0.3151, -15.7533, 19.4122, 19.4122
129.84, (24.999,7.608), 130.2565, 100.0, 129.8364916996463, 129.06, 129.06, 0.3863, -0.3175, -15.875, 19.3128, 19.3128
139.32, (23.588,9.021), 139.7365, 100.0, 139.73647343385144, 138.6, 138.6, 0.3259, -0.3792, -18.959, 16.2958, 16.2958
139.32, (22.223,10.195), 139.7365, 100.0, 139.73645767394285, 139.32, 139.32, 0.3259, -0.3792, -18.959, 16.2958, 16.2958
142.86, (20.693,11.482), 143.2764, 100.0, 142.85643954455887, 141.36, 141.36, 0.3048, -0.3964, -19.8179, 15.2398, 15.2398
148.44, (19.009,12.559), 148.8564, 100.0, 149.2164202933932, 149.46, 149.46, 0.259, -0.4277, -21.3841, 12.9507, 12.9507
139.38, (17.567,13.633), 139.7964, 100.0, 139.79640476971903, 140.1, 140.1, 0.3255, -0.3795, -18.9761, 16.276, 16.276
139.38, (16.049,14.935), 139.7964, 100.0, 139.79639200482666, 139.38, 139.38, 0.3255, -0.3795, -18.9761, 16.276, 16.276
132.36, (14.595,16.305), 132.7764, 100.0, 132.7763732004452, 133.5, 133.5, 0.3695, -0.3369, -16.8447, 18.4731, 18.4731
130.2, (13.446,17.691), 130.6164, 100.0, 130.31635801778071, 129.24, 129.24, 0.3836, -0.3207, -16.0362, 19.1791, 19.1791
139.56, (12.022,19.092), 139.9763, 100.0, 139.97634038393858, 139.14, 139.14, 0.3243, -0.3805, -19.0271, 16.2163, 16.2163
149.22, (10.402,20.261), 149.6363, 100.0, 149.2163222735324, 147.78, 147.78, 0.259, -0.4277, -21.3841, 12.9507, 12.9507
149.88, (8.845,21.164), 150.2963, 100.0, 150.2963077734076, 149.88, 149.88, 0.2509, -0.4325, -21.6244, 12.5453, 12.5453
149.88, (7.115,22.167), 150.2963, 100.0, 150.29629512202766, 149.88, 149.88, 0.2509, -0.4325, -21.6244, 12.5453, 12.5453
150.96, (5.384,23.169), 151.3763, 100.0, 151.01628191155916, 149.88, 149.88, 0.2455, -0.4356, -21.7803, 12.2726, 12.2726
159.78, (3.74,23.897), 160.1963, 100.0, 160.55626447744757, 159.48, 159.48, 0.1699, -0.4703, -23.5131, 8.4931, 8.4931
150.06, (1.934,24.75), 150.4762, 100.0, 150.4762442717316, 151.14, 151.14, 0.2495, -0.4333, -21.6637, 12.4773, 12.4773
150.06, (0.374,25.648), 150.4762, 100.0, 150.47622740924618, 150.06, 150.06, 0.2495, -0.4333, -21.6637, 12.4773, 12.4773
142.38, (-1.306,26.73), 142.7962, 100.0, 143.15620910043185, 143.88, 143.88, 0.3027, -0.3979, -19.8974, 15.1358, 15.1358
139.8, (-2.686,27.885), 140.2162, 100.0, 140.21619513000633, 139.8, 139.8, 0.3227, -0.3819, -19.0949, 16.1364, 16.1364
145.92, (-4.253,29.126), 146.3362, 100.0, 145.97617993682806, 144.54, 144.54, 0.2828, -0.4124, -20.618, 14.1386, 14.1386
150, (-5.797,30.049), 150.4162, 100.0, 150.41616414892061, 150, 150, 0.25, -0.433, -21.6506, 12.5, 12.5
150, (-7.529,31.049), 150.4161, 100.0, 150.41614850982947, 150, 150, 0.25, -0.433, -21.6506, 12.5, 12.5
150, (-9.088,31.949), 150.4161, 100.0, 150.41613608185173, 150, 150, 0.25, -0.433, -21.6506, 12.5, 12.5
150, (-10.82,32.949), 150.4161, 100.0, 150.41612042488717, 150, 150, 0.25, -0.433, -21.6506, 12.5, 12.5
159, (-12.614,33.828), 159.4161, 100.0, 159.11610177789845, 157.56, 157.56, 0.1816, -0.4658, -23.2923, 9.0813, 9.0813
169.56, (-14.539,34.359), 169.9761, 100.0, 169.97608740822324, 168.36, 168.36, 0.0906, -0.4917, -24.5861, 4.5301, 4.5301
179.4, (-16.329,34.53), 179.8161, 100.0, 179.15607250124168, 177.66, 177.66, 0.011, -0.4999, -24.994, 0.5497, 0.5497
189.72, (-18.32,34.375), 190.136, 100.0, 189.7760496338676, -171.78, -171.78, -0.0813, -0.4933, -24.6671, -4.0659, -4.0659
200.04, (-20.249,33.857), 200.456, 100.0, 200.09603320266615, -161.28, -161.28, -0.1684, -0.4708, -23.5397, -8.4192, -8.4192
210.12, (-21.879,33.098), 210.536, 100.0, 209.45601720023134, -151.74, -151.74, -0.2427, -0.4371, -21.857, -12.1355, -12.1355
220.2, (-23.516,31.954), 220.616, 100.0, 219.8960086067145, -141.66, -141.66, -0.3179, -0.3859, -19.2962, -15.8952, -15.8952
230.34, (-24.92,30.534), 230.756, 100.0, 230.45599217053297, -130.98, -130.98, -0.3832, -0.3211, -16.0563, -19.1623, -19.1623
240.06, (-25.938,29.051), 240.476, 100.0, 240.17598020273428, -121.32, -121.32, -0.432, -0.2518, -12.5906, -21.5981, -21.5981
249.78, (-26.789,27.245), 250.196, 100.0, 249.8359693960842, -111.6, -111.6, -0.4681, -0.1758, -8.7879, -23.4046, -23.4046
250.08, (-27.403,25.553), 250.496, 100.0, 250.49595833788985, -109.92, -109.92, -0.4701, -0.1704, -8.5177, -23.5042, -23.5042
240.42, (-28.228,23.734), 240.8359, 100.0, 241.25594300542, -118.08, -118.08, -0.4366, -0.2436, -12.1813, -21.8316, -21.8316
240.06, (-29.226,22.001), 240.4759, 100.0, 240.47592189342362, -119.94, -119.94, -0.4333, -0.2495, -12.4773, -21.6637, -21.6637
235.92, (-30.251,20.284), 236.3359, 100.0, 236.69590577500514, -122.76, -122.76, -0.4159, -0.2776, -13.8784, -20.794, -20.794
229.74, (-31.369,18.874), 230.1559, 100.0, 230.15589424044032, -130.26, -130.26, -0.3816, -0.3231, -16.1564, -19.078, -19.078
233.52, (-32.641,17.332), 233.9359, 100.0, 233.5758811318677, -127.8, -127.8, -0.4002, -0.2998, -14.9896, -20.0078, -20.0078
240.66, (-33.698,15.636), 241.0759, 100.0, 240.77586686829298, -120, -120, -0.4346, -0.2473, -12.3637, -21.7287, -21.7287
250.32, (-34.441,13.998), 250.7359, 100.0, 250.31585512315178, -111.06, -111.06, -0.4695, -0.1718, -8.5915, -23.4774, -23.4774
260.22, (-34.955,12.068), 260.6358, 100.0, 260.27583367571043, -101.22, -101.22, -0.4922, -0.088, -4.4013, -24.6095, -24.6095
260.52, (-35.251,10.293), 260.9358, 100.0, 260.93581619308765, -99.48, -99.48, -0.4932, -0.0824, -4.1176, -24.6586, -24.6586
260.52, (-35.58,8.32), 260.9358, 100.0, 260.9357979359916, -99.48, -99.48, -0.4932, -0.0824, -4.1176, -24.6586, -24.6586
251.94, (-35.981,6.567), 252.3558, 100.0, 253.4357857348429, -105.96, -105.96, -0.4782, -0.146, -7.3009, -23.9102, -23.9102
258.66, (-36.547,4.651), 259.0758, 100.0, 258.1157663934325, -103.38, -103.38, -0.4885, -0.1065, -5.3258, -24.4261, -24.4261
263.28, (-36.872,2.678), 263.6957, 100.0, 263.39574788330646, -98.22, -98.22, -0.4963, -0.0611, -3.0554, -24.8126, -24.8126
270.78, (-36.932,0.68), 271.1957, 100.0, 271.1957302862448, -89.22, -89.22, -0.5, 0.0068, 0.3403, -24.9977, -24.9977
269.34, (-36.909,-1.119), 269.7557, 100.0, 270.775715277859, -89.22, -89.22, -0.5, 0.0031, 0.1571, -24.9995, -24.9995
260.64, (-37.093,-3.108), 261.0557, 100.0, 261.0556950053726, -99.06, -99.06, -0.4933, -0.0813, -4.0659, -24.6671, -24.6671
260.94, (-37.418,-5.082), 261.3557, 100.0, 261.0556760141148, -99.36, -99.36, -0.4933, -0.0813, -4.0659, -24.6671, -24.6671
270.96, (-37.543,-6.875), 271.3757, 100.0, 270.65566294162943, -90.78, -90.78, -0.5, 0.0021, 0.1047, -24.9998, -24.9998
270.96, (-37.51,-8.875), 271.3756, 100.0, 271.37564318320847, -89.04, -89.04, -0.4999, 0.0084, 0.4189, -24.9965, -24.9965
264.36, (-37.554,-10.873), 264.7756, 100.0, 265.07562624229115, -94.32, -94.32, -0.4978, -0.0465, -2.3266, -24.8915, -24.8915
260.76, (-37.826,-12.652), 261.1756, 100.0, 261.17561050982283, -99.24, -99.24, -0.4935, -0.0803, -4.0143, -24.6756, -24.6756
260.76, (-38.147,-14.626), 261.1756, 100.0, 261.1755951205093, -99.24, -99.24, -0.4935, -0.0803, -4.0143, -24.6756, -24.6756
260.76, (-38.468,-16.6), 261.1756, 100.0, 261.17557912563007, -99.24, -99.24, -0.4935, -0.0803, -4.0143, -24.6756, -24.6756
260.76, (-38.789,-18.574), 261.1756, 100.0, 261.17556537146413, -99.24, -99.24, -0.4935, -0.0803, -4.0143, -24.6756, -24.6756
260.76, (-39.078,-20.351), 261.1755, 100.0, 261.175549754232, -99.24, -99.24, -0.4935, -0.0803, -4.0143, -24.6756, -24.6756
263.46, (-39.387,-22.327), 263.8755, 100.0, 263.51553232261006, -97.98, -97.98, -0.4964, -0.0601, -3.0034, -24.8189, -24.8189
270.78, (-39.445,-24.324), 271.1955, 100.0, 271.1955161700942, -89.22, -89.22, -0.5, 0.0068, 0.3403, -24.9977, -24.9977
276.42, (-39.369,-26.122), 276.8355, 100.0, 276.4755014960019, -85.08, -85.08, -0.4972, 0.0528, 2.6392, -24.8603, -24.8603
275.82, (-39.077,-28.099), 276.2355, 100.0, 276.2354834449327, -83.16, -83.16, -0.4974, 0.0507, 2.5351, -24.8711, -24.8711
281.94, (-38.884,-29.685), 282.3555, 100.0, 281.6954649465815, -79.74, -79.74, -0.3668, 0.0732, 3.6578, -18.3388, -18.3388
292.14, (-38.568,-30.754), 292.5555, 100.0, 292.13545233326863, -69.3, -69.3, -0.1858, 0.074, 3.7007, -9.29, -9.29
302.16, (-38.399,-31.102), 302.5754, 100.0, 302.21543269619787, -59.34, -59.34, -0.0272, 0.0169, 0.8431, -1.3598, -1.3598
312.48, (-38.395,-31.107), 312.8954, 100.0, 311.87541871519704, -0, -0, -0, 0, 0, -0, -0
322.68, (-38.395,-31.107), 323.0954, 100.0, 322.31540144760095, -0, -0, -0, 0, 0, -0, -0
332.94, (-38.395,-31.107), 333.3554, 100.0, 332.3353825012354, -0, -0, -0, 0, 0, -0, -0
342.96, (-38.395,-31.107), 343.3754, 100.0, 342.65537324138234, -0, -0, -0, 0, 0, -0, -0
353.16, (-38.395,-31.107), 353.5754, 100.0, 353.21535926816574, -0, -0, -0, 0, 0, -0, -0
3.54, (-38.395,-31.107), 3.9553, 100.0, 2.9353458456969537, 0, 0, 0, 0, 0, 0, 0
13.38, (-38.395,-31.107), 13.7953, 100.0, 13.43532986703299, 0, 0, 0, 0, 0, 0, 0
23.7, (-38.395,-31.107), 24.1153, 100.0, 23.755313525334827, 0, 0, 0, 0, 0, 0, 0
34.02, (-38.395,-31.107), 34.4353, 100.0, 34.07529250284238, 0, 0, 0, 0, 0, 0, 0
44.04, (-38.395,-31.107), 44.4553, 100.0, 43.79527918780704, 0, 0, 0, 0, 0, 0, 0
54.42, (-38.395,-31.107), 54.8353, 100.0, 53.875256570755404, 0, 0, 0, 0, 0, 0, 0
64.74, (-38.395,-31.107), 65.1552, 100.0, 64.85523827830545, 0, 0, 0, 0, 0, 0, 0
74.82, (-38.395,-31.107), 75.2352, 100.0, 74.21522006746738, 0, 0, 0, 0, 0, 0, 0
85.08, (-38.395,-31.107), 85.4952, 100.0, 84.77520623756355, 0, 0, 0, 0, 0, 0, 0
92.76, (-38.396,-31.1), 93.1752, 100.0, 93.47519102421822, 180, 180, 0.018, -0.001, -0.048, 0.8987, 0.8987
90.3, (-38.398,-30.714), 90.7152, 100.0, 90.71517927051049, 90.3, 90.3, 0.179, -0.0009, -0.0469, 8.9499, 8.9499
81.24, (-38.316,-29.62), 81.6552, 100.0, 82.01515932788574, 82.62, 82.62, 0.3492, 0.0516, 2.5784, 17.4607, 17.4607
88.02, (-38.127,-28.052), 88.4351, 100.0, 87.41514590516685, 85.68, 85.68, 0.4993, 0.0262, 1.3084, 24.9657, 24.9657
90.36, (-38.126,-26.053), 90.7751, 100.0, 90.77512600652413, 90.36, 90.36, 0.5, -0.0031, -0.1571, 24.9995, 24.9995
90.36, (-38.139,-24.053), 90.7751, 100.0, 90.77511085447308, 90.36, 90.36, 0.5, -0.0031, -0.1571, 24.9995, 24.9995
88.98, (-38.148,-22.253), 89.3951, 100.0, 90.05509532201644, 90.36, 90.36, 0.5, 0.0031, 0.1571, 24.9995, 24.9995
80.04, (-37.941,-20.266), 80.4551, 100.0, 80.45507795060496, 80.4, 80.4, 0.4925, 0.0865, 4.324, 24.6232, 24.6232
72.36, (-37.486,-18.321), 72.7751, 100.0, 72.77506211760583, 73.38, 73.38, 0.4765, 0.1515, 7.5759, 23.8245, 23.8245
70.62, (-36.873,-16.628), 71.035, 100.0, 70.315043347647, 69.9, 69.9, 0.4695, 0.1718, 8.5915, 23.4774, 23.4774
80.16, (-36.377,-14.694), 80.575, 100.0, 80.57502684791307, 79.44, 79.44, 0.4926, 0.0854, 4.2724, 24.6322, 24.6322
90, (-36.222,-12.902), 90.415, 100.0, 89.69501617906788, 88.26, 88.26, 0.5, 0.0063, 0.3142, 24.998, 24.998
81.36, (-36.093,-10.909), 81.775, 100.0, 82.13500444243016, 82.8, 82.8, 0.4948, 0.072, 3.6003, 24.7394, 24.7394
71.88, (-35.685,-9.158), 72.295, 100.0, 73.31499380586727, 73.68, 73.68, 0.4779, 0.147, 7.351, 23.8948, 23.8948
70.14, (-35.013,-7.274), 70.555, 100.0, 70.55497873686956, 70.14, 70.14, 0.4703, 0.1699, 8.4931, 23.5131, 23.5131
70.14, (-34.333,-5.393), 70.555, 100.0, 70.55496132148329, 70.14, 70.14, 0.4703, 0.1699, 8.4931, 23.5131, 23.5131
64.68, (-33.611,-3.529), 65.0949, 100.0, 65.81494792536141, 66.54, 66.54, 0.4546, 0.2081, 10.407, 22.7309, 22.7309
59.82, (-32.642,-1.781), 60.2349, 100.0, 60.234928446347546, 59.82, 59.82, 0.4322, 0.2514, 12.568, 21.6113, 21.6113
59.82, (-31.737,-0.224), 60.2349, 100.0, 60.234915604959376, 59.82, 59.82, 0.4322, 0.2514, 12.568, 21.6113, 21.6113
63.42, (-30.747,1.513), 63.8349, 100.0, 63.05490053717538, 61.56, 61.56, 0.4441, 0.2298, 11.4895, 22.2034, 22.2034
70.14, (-29.995,3.365), 70.5549, 100.0, 70.55487970869049, 70.14, 70.14, 0.4703, 0.1699, 8.4931, 23.5131, 23.5131
70.14, (-29.384,5.058), 70.5549, 100.0, 70.55486365263387, 70.14, 70.14, 0.4703, 0.1699, 8.4931, 23.5131, 23.5131
70.14, (-28.704,6.939), 70.5548, 100.0, 70.55484340139672, 70.14, 70.14, 0.4703, 0.1699, 8.4931, 23.5131, 23.5131
70.14, (-28.025,8.82), 70.5548, 100.0, 70.55482911676769, 70.14, 70.14, 0.4703, 0.1699, 8.4931, 23.5131, 23.5131
68.46, (-27.34,10.699), 68.8748, 100.0, 69.2348126454175, 69.84, 69.84, 0.4662, 0.1806, 9.0325, 23.3112, 23.3112
59.16, (-26.539,12.309), 59.5748, 100.0, 60.234796068730425, 60.54, 60.54, 0.4322, 0.2514, 12.568, 21.6113, 21.6113
48.78, (-25.377,13.933), 49.1948, 100.0, 50.274781310933534, 50.88, 50.88, 0.3822, 0.3223, 16.1164, 19.1118, 19.1118
38.64, (-23.94,15.32), 39.0548, 100.0, 39.414767784764294, 40.26, 40.26, 0.3147, 0.3886, 19.4286, 15.733, 15.733
28.68, (-22.445,16.32), 29.0948, 100.0, 30.114751980419687, 30.54, 30.54, 0.2477, 0.4343, 21.7158, 12.3865, 12.3865
18.12, (-20.617,17.122), 18.5347, 100.0, 19.554740079545315, 20.16, 20.16, 0.1639, 0.4724, 23.618, 8.1969, 8.1969
8.1, (-18.672,17.579), 8.5147, 100.0, 8.934725060432482, 9.6, 9.6, 0.0741, 0.4945, 24.7241, 3.7039, 3.7039
359.94, (-16.677,17.683), 0.3653, 100.0, 0.3652863985489516, -0.06, -0.06, -0.0005, 0.5, 25, -0.0262, -0.0262
359.94, (-14.877,17.681), 0.3653, 100.0, 0.3652687711915084, -0.06, -0.06, -0.0005, 0.5, 25, -0.0262, -0.0262
8.22, (-12.883,17.803), 8.6452, 100.0, 8.645249013047287, 7.2, 7.2, 0.0715, 0.4949, 24.7432, 3.5744, 3.5744
10.02, (-11.11,18.114), 10.4452, 100.0, 10.44523540910529, 10.02, 10.02, 0.087, 0.4924, 24.6187, 4.3498, 4.3498
19.38, (-9.174,18.604), 19.8052, 100.0, 19.145213144085073, 17.7, 17.7, 0.1605, 0.4735, 23.6775, 8.0236, 8.0236
11.4, (-7.451,19.12), 11.8252, 100.0, 12.905199878087695, 13.5, 13.5, 0.108, 0.4882, 24.4093, 5.4025, 5.4025
1.44, (-5.468,19.354), 1.8652, 100.0, 2.525179345163359, 3.18, 3.18, 0.0183, 0.4997, 24.9832, 0.9161, 0.9161
358.92, (-3.468,19.328), 0.0548, 100.0, 0.0548062828291774, -1.08, -1.08, -0.0094, 0.4999, 24.9956, -0.4712, -0.4712
351.36, (-1.673,19.215), 352.9852, 100.0, 354.12519194330395, -6.42, -6.42, -0.0653, 0.4957, 24.7861, -3.2632, -3.2632
348.36, (0.29,18.832), 349.9852, 100.0, 349.98517753131136, -11.64, -11.64, -0.1009, 0.4897, 24.4859, -5.044, -5.044
348.36, (2.249,18.429), 349.9852, 100.0, 349.98515984559754, -11.64, -11.64, -0.1009, 0.4897, 24.4859, -5.044, -5.044
339.24, (3.978,17.938), 340.8651, 100.0, 341.5851417439336, -19.02, -19.02, -0.1713, 0.4697, 23.4863, -8.5669, -8.5669
338.16, (5.836,17.196), 339.7851, 100.0, 339.7851283694956, -21.84, -21.84, -0.186, 0.4641, 23.2057, -9.3004, -9.3004
345.42, (7.723,16.54), 347.0451, 100.0, 346.74511003635286, -15.96, -15.96, -0.1284, 0.4832, 24.1616, -6.4199, -6.4199
341.16, (9.657,16.036), 342.7851, 100.0, 343.1450934891677, -17.46, -17.46, -0.1585, 0.4742, 23.7109, -7.9243, -7.9243
338.1, (11.332,15.379), 339.7251, 100.0, 339.7250800080177, -21.9, -21.9, -0.1865, 0.4639, 23.1959, -9.3247, -9.3247
345.84, (13.22,14.725), 347.4651, 100.0, 347.10506243358157, -15.78, -15.78, -0.1254, 0.484, 24.2015, -6.2679, -6.2679
355.32, (14.992,14.419), 356.945, 100.0, 355.9850484050679, -6.78, -6.78, -0.0491, 0.4976, 24.879, -2.4569, -2.4569
352.26, (16.987,14.284), 354.605, 100.0, 355.2650373271115, -5.94, -5.94, -0.0616, 0.4962, 24.8094, -3.0814, -3.0814
352.62, (18.758,13.965), 354.965, 100.0, 353.8850252993894, -9.54, -9.54, -0.0736, 0.4946, 24.728, -3.678, -3.678
354, (20.751,13.813), 357.535, 100.0, 358.19498317623356, -4.02, -4.02, -0.0465, 0.4978, 24.8915, -2.3266, -2.3266
344.64, (22.713,13.437), 348.175, 100.0, 348.17496164892253, -13.92, -13.92, -0.1324, 0.4821, 24.107, -6.6221, -6.6221
334.98, (24.399,12.812), 338.5149, 100.0, 339.29494620845577, -23.52, -23.52, -0.2053, 0.4559, 22.7958, -10.264, -10.264
325.92, (26.132,11.819), 329.4549, 100.0, 329.45492449380436, -33.42, -33.42, -0.2802, 0.4141, 20.7064, -14.0087, -14.0087
315.9, (27.673,10.549), 319.4349, 100.0, 319.4349062547849, -43.08, -43.08, -0.348, 0.3591, 17.9532, -17.3978, -17.3978
306.36, (28.862,9.2), 309.8949, 100.0, 310.79489602529395, -51.72, -51.72, -0.3979, 0.3027, 15.1358, -19.8974, -19.8974
316.62, (29.951,7.951), 320.1549, 100.0, 319.7948835097749, -44.82, -44.82, -0.2316, 0.242, 12.1016, -11.5807, -11.5807
326.76, (30.699,7.353), 330.2949, 100.0, 330.2948668310958, -34.32, -34.32, -0.0877, 0.1338, 6.6911, -4.3852, -4.3852
336.96, (30.93,7.221), 340.4949, 100.0, 339.47485523263566, -25.14, -25.14, -0.0029, 0.0064, 0.3196, -0.1427, -0.1427
347.22, (30.93,7.221), 350.7548, 100.0, 350.09483898009825, -0, -0, -0, 0, 0, -0, -0
357.12, (30.93,7.221), 0.6548, 100.0, 0.6548247603703218, -0, -0, -0, 0, 0, -0, -0
7.2, (30.93,7.221), 10.7348, 100.0, 10.134811227670976, 0, 0, 0, 0, 0, 0, 0
17.7, (30.93,7.221), 21.2348, 100.0, 20.514791031787865, 0, 0, 0, 0, 0, 0, 0
27.66, (30.93,7.221), 31.1948, 100.0, 31.19477457699407, 0, 0, 0, 0, 0, 0, 0
37.98, (30.93,7.221), 41.5148, 100.0, 40.91475434101153, 0, 0, 0, 0, 0, 0, 0
48.06, (30.93,7.221), 51.5947, 100.0, 51.59473155378068, 0, 0, 0, 0, 0, 0, 0
58.32, (30.93,7.221), 61.8547, 100.0, 60.77471748923304, 0, 0, 0, 0, 0, 0, 0
68.22, (30.93,7.221), 71.7547, 100.0, 71.4546999591108, 0, 0, 0, 0, 0, 0, 0
78.54, (30.93,7.221), 82.0747, 100.0, 81.05468209335422, 0, 0, 0, 0, 0, 0, 0
88.68, (30.93,7.221), 92.2147, 100.0, 91.2546662183105, 0, 0, 0, 0, 0, 0, 0
99.18, (30.93,7.221), 102.7146, 100.0, 101.9946493668857, 180, 180, 0, -0, -0, 0, 0
109.38, (30.93,7.221), 112.9146, 100.0, 112.25463430031401, 180, 180, 0, -0, -0, 0, 0
119.58, (30.93,7.221), 123.1146, 100.0, 122.81461222694792, 180, 180, 0, -0, -0, 0, 0
129.84, (30.93,7.221), 133.3746, 100.0, 132.23460011055673, 180, 180, 0, -0, -0, 0, 0
139.92, (30.93,7.221), 143.4546, 100.0, 143.094581882567, 180, 180, 0, -0, -0, 0, 0
150.24, (30.93,7.221), 153.7746, 100.0, 152.814567311542, 180, 180, 0, -0, -0, 0, 0
160.44, (30.93,7.221), 163.9746, 100.0, 163.31455150768534, 180, 180, 0, -0, -0, 0, 0
170.52, (30.93,7.221), 174.0545, 100.0, 173.63453766808544, 180, 180, 0, -0, -0, 0, 0
180.6, (30.93,7.221), 184.1345, 100.0, 183.11452082419396, 180, 180, 0, -0, -0, 0, 0
190.74, (30.93,7.221), 194.2745, 100.0, 193.9745059677205, -180, -180, -0, -0, -0, -0, -0
200.76, (30.803,7.178), 204.2945, 100.0, 203.93448965598694, -160.32, -160.32, -0.0342, -0.0919, -4.5927, -1.708, -1.708
210.6, (30.196,6.875), 214.1345, 100.0, 213.7144783088103, -150.9, -150.9, -0.1312, -0.2256, -11.2811, -6.5605, -6.5605
220.92, (29.049,6.031), 224.4545, 100.0, 224.09445969803656, -140.4, -140.4, -0.2822, -0.3297, -16.486, -14.1103, -14.1103
230.88, (27.698,4.608), 234.4144, 100.0, 234.41444097558346, -129.78, -129.78, -0.3879, -0.3155, -15.7737, -19.3957, -19.3957
241.14, (26.7,3.113), 244.6744, 100.0, 243.9544232360371, -120.6, -120.6, -0.4348, -0.2468, -12.341, -21.7417, -21.7417
251.28, (25.895,1.285), 254.8144, 100.0, 254.5144026788281, -110.16, -110.16, -0.4727, -0.1629, -8.1475, -23.6351, -23.6351
261.6, (25.434,-0.658), 265.1344, 100.0, 264.7743812836972, -99.84, -99.84, -0.4942, -0.0761, -3.8074, -24.7084, -24.7084
271.68, (25.33,-2.453), 275.2144, 100.0, 274.4943688178733, -90.12, -90.12, -0.4999, 0.0084, 0.4189, -24.9965, -24.9965
281.7, (25.553,-4.438), 285.2344, 100.0, 284.5143513634778, -80.04, -80.04, -0.4908, 0.0952, 4.7617, -24.5423, -24.5423
291.96, (26.131,-6.35), 295.4943, 100.0, 295.1943343487846, -69.48, -69.48, -0.4647, 0.1845, 9.2275, -23.2348, -23.2348
302.1, (26.945,-7.953), 305.6343, 100.0, 304.9143254083855, -60.06, -60.06, -0.4269, 0.2604, 13.0178, -21.3433, -21.3433
306.3, (28.106,-9.581), 309.8343, 100.0, 309.8343095566395, -53.7, -53.7, -0.403, 0.296, 14.8003, -20.1482, -20.1482
306.3, (29.29,-11.193), 309.8343, 100.0, 309.8342937023732, -53.7, -53.7, -0.403, 0.296, 14.8003, -20.1482, -20.1482
310.68, (30.502,-12.783), 314.2143, 100.0, 313.7942785996412, -50.76, -50.76, -0.3816, 0.3231, 16.1564, -19.078, -19.078
316.56, (31.775,-14.054), 320.0943, 100.0, 320.09426343191416, -43.44, -43.44, -0.3438, 0.363, 18.1524, -17.1899, -17.1899
308.64, (33.147,-15.507), 312.1742, 100.0, 312.5342461036861, -49.98, -49.98, -0.3886, 0.3147, 15.733, -19.4286, -19.4286
314.46, (34.425,-17.042), 317.9942, 100.0, 317.5742289117941, -47.04, -47.04, -0.3594, 0.3476, 17.379, -17.9714, -17.9714
318.24, (35.731,-18.281), 321.7742, 100.0, 321.1142121229305, -43.38, -43.38, -0.3373, 0.3691, 18.4555, -16.864, -16.864
326.82, (37.332,-19.476), 330.3542, 100.0, 330.3541999242581, -33.18, -33.18, -0.2736, 0.4185, 20.9239, -13.6818, -13.6818
326.82, (39.006,-20.57), 330.3542, 100.0, 330.3541833814543, -33.18, -33.18, -0.2736, 0.4185, 20.9239, -13.6818, -13.6818
326.82, (40.512,-21.555), 330.3542, 100.0, 330.3541734426641, -33.18, -33.18, -0.2736, 0.4185, 20.9239, -13.6818, -13.6818
326.82, (42.186,-22.65), 330.3542, 100.0, 330.35415848177485, -33.18, -33.18, -0.2736, 0.4185, 20.9239, -13.6818, -13.6818
326.82, (43.86,-23.744), 330.3541, 100.0, 330.35414392523825, -33.18, -33.18, -0.2736, 0.4185, 20.9239, -13.6818, -13.6818
326.82, (45.367,-24.73), 330.3541, 100.0, 330.35412845067145, -33.18, -33.18, -0.2736, 0.4185, 20.9239, -13.6818, -13.6818
326.82, (47.041,-25.824), 330.3541, 100.0, 330.3541139986959, -33.18, -33.18, -0.2736, 0.4185, 20.9239, -13.6818, -13.6818
331.68, (48.739,-26.879), 335.2141, 100.0, 335.21409217355495, -29.46, -29.46, -0.2372, 0.4402, 22.0078, -11.8599, -11.8599
332.7, (50.368,-27.644), 336.2341, 100.0, 337.1940785891415, -25.26, -25.26, -0.2218, 0.4481, 22.4044, -11.0924, -11.0924
328.02, (52.076,-28.681), 331.5541, 100.0, 330.89406449510955, -33.3, -33.3, -0.2697, 0.421, 21.0519, -13.484, -13.484
336.9, (53.851,-29.598), 340.434, 100.0, 340.4340442868147, -23.82, -23.82, -0.1962, 0.4599, 22.9955, -9.8084, -9.8084
336.9, (55.691,-30.382), 340.434, 100.0, 340.43402943253807, -23.1, -23.1, -0.1962, 0.4599, 22.9955, -9.8084, -9.8084
336.9, (57.346,-31.089), 340.434, 100.0, 340.4340192669628, -23.1, -23.1, -0.1962, 0.4599, 22.9955, -9.8084, -9.8084
336.9, (59.186,-31.873), 340.434, 100.0, 340.4340023399516, -23.1, -23.1, -0.1962, 0.4599, 22.9955, -9.8084, -9.8084
336.9, (60.842,-32.579), 340.434, 100.0, 340.4339918867272, -23.1, -23.1, -0.1962, 0.4599, 22.9955, -9.8084, -9.8084
342.6, (62.701,-33.313), 346.134, 100.0, 345.6539750578911, -18.9, -18.9, -0.1535, 0.4759, 23.7925, -7.6756, -7.6756
347.22, (64.642,-33.792), 350.754, 100.0, 350.7539612770922, -12.78, -12.78, -0.1106, 0.4876, 24.3807, -5.5302, -5.5302
342.06, (66.579,-34.284), 345.5939, 100.0, 345.5939452836337, -16.86, -16.86, -0.154, 0.4757, 23.7845, -7.7005, -7.7005
341.64, (68.259,-34.929), 345.1739, 100.0, 344.1539321413915, -20.46, -20.46, -0.1659, 0.4717, 23.5835, -8.2958, -8.2958
350.22, (70.198,-35.415), 353.7539, 100.0, 353.3939152422212, -11.16, -11.16, -0.088, 0.4922, 24.6095, -4.4013, -4.4013
357.18, (72.188,-35.592), 0.7139, 100.0, 0.7138979432117253, -2.82, -2.82, -0.0246, 0.4994, 24.9697, -1.23, -1.23
357.18, (74.186,-35.69), 0.7139, 100.0, 0.7138821443902762, -2.82, -2.82, -0.0246, 0.4994, 24.9697, -1.23, -1.23
2.64, (75.984,-35.73), 6.1739, 100.0, 5.4538627324129445, 1.08, 1.08, 0.0168, 0.4997, 24.986, 0.8376, 0.8376
7.38, (77.972,-35.512), 10.9138, 100.0, 10.913845309570561, 7.38, 7.38, 0.0642, 0.4959, 24.7929, 3.2112, 3.2112
7.38, (79.757,-35.28), 10.9138, 100.0, 10.913827876160273, 7.38, 7.38, 0.0642, 0.4959, 24.7929, 3.2112, 3.2112
7.38, (81.74,-35.023), 10.9138, 100.0, 10.913812667759387, 7.38, 7.38, 0.0642, 0.4959, 24.7929, 3.2112, 3.2112
15.18, (83.706,-34.666), 18.7138, 100.0, 17.993795378129413, 13.86, 13.86, 0.1249, 0.4842, 24.2081, 6.2426, 6.2426
22.74, (85.413,-34.098), 26.2738, 100.0, 25.13377913676076, 20.58, 20.58, 0.1841, 0.4649, 23.2444, 9.2031, 9.2031
32.4, (87.189,-33.183), 35.9338, 100.0, 35.21376607930276, 30.66, 30.66, 0.2626, 0.4255, 21.2749, 13.1294, 13.1294
40.02, (88.792,-31.99), 43.5538, 100.0, 43.133752381351684, 38.58, 38.58, 0.3187, 0.3853, 19.2628, 15.9356, 15.9356
49.32, (90.069,-30.723), 52.8537, 100.0, 51.83373859347888, 47.94, 47.94, 0.3733, 0.3326, 16.6308, 18.666, 18.666
58.5, (91.238,-29.104), 62.0337, 100.0, 62.033729258249444, 57.84, 57.84, 0.4263, 0.2612, 13.0625, 21.316, 21.316
58.5, (92.283,-27.399), 62.0337, 100.0, 62.03371155679309, 58.5, 58.5, 0.4263, 0.2612, 13.0625, 21.316, 21.316
58.5, (93.224,-25.864), 62.0337, 100.0, 62.03369751353386, 58.5, 58.5, 0.4263, 0.2612, 13.0625, 21.316, 21.316
51, (94.347,-24.212), 54.5337, 100.0, 54.953680609446806, 52.56, 52.56, 0.3909, 0.3118, 15.5902, 19.5435, 19.5435
42.18, (95.723,-22.763), 45.7137, 100.0, 45.71366357708978, 43.26, 43.26, 0.3357, 0.3705, 18.526, 16.7865, 16.7865
38.82, (97.126,-21.637), 42.3536, 100.0, 41.57364529883194, 38.04, 38.04, 0.3081, 0.3938, 19.6895, 15.4053, 15.4053
48.12, (98.575,-20.261), 51.6536, 100.0, 51.653635441736434, 47.04, 47.04, 0.3723, 0.3338, 16.6893, 18.6136, 18.6136
45.54, (99.918,-18.78), 49.0736, 100.0, 49.43361803411469, 46.92, 46.92, 0.3591, 0.348, 17.3978, 17.9532, 17.9532
37.74, (101.279,-17.604), 41.2736, 100.0, 41.27360713758972, 37.74, 37.74, 0.306, 0.3954, 19.7699, 15.302, 15.302
37.74, (102.861,-16.38), 41.2736, 100.0, 41.273590522296686, 37.74, 37.74, 0.306, 0.3954, 19.7699, 15.302, 15.302
37.74, (104.442,-15.156), 41.2736, 100.0, 41.27357062067117, 37.74, 37.74, 0.306, 0.3954, 19.7699, 15.302, 15.302
37.74, (105.866,-14.054), 41.2736, 100.0, 41.273554945701214, 37.74, 37.74, 0.306, 0.3954, 19.7699, 15.302, 15.302
33.3, (107.466,-12.856), 36.8335, 100.0, 37.49353653615421, 34.98, 34.98, 0.2793, 0.4147, 20.7357, 13.9653, 13.9653
27.48, (109.212,-11.883), 31.0135, 100.0, 31.013521687864344, 27.48, 27.48, 0.2307, 0.4436, 22.1793, 11.536, 11.536
27.48, (110.986,-10.96), 31.0135, 100.0, 31.013503479151204, 27.48, 27.48, 0.2307, 0.4436, 22.1793, 11.536, 11.536
22.92, (112.597,-10.158), 26.4535, 100.0, 27.17348834487108, 24.66, 24.66, 0.2005, 0.458, 22.9021, 10.0247, 10.0247
17.16, (114.49,-9.515), 20.6935, 100.0, 20.69346834267147, 17.16, 17.16, 0.1475, 0.4777, 23.8871, 7.376, 7.376
17.16, (116.401,-8.924), 20.6935, 100.0, 20.69345174149739, 17.16, 17.16, 0.1475, 0.4777, 23.8871, 7.376, 7.376
17.16, (118.121,-8.393), 20.6934, 100.0, 20.69343781586039, 17.16, 17.16, 0.1475, 0.4777, 23.8871, 7.376, 7.376
17.16, (120.032,-7.803), 20.6934, 100.0, 20.69341675368297, 17.16, 17.16, 0.1475, 0.4777, 23.8871, 7.376, 7.376
17.16, (121.943,-7.213), 20.6934, 100.0, 20.693397196355544, 17.16, 17.16, 0.1475, 0.4777, 23.8871, 7.376, 7.376
Rotation, Location, Gyro Rotation, Sensor Optical Flow, Battery Level, Yaw, Pitch, Roll, Vy, Vx, AccX, AccY
0, (0.07,0), 360, 100.0, 360.0000009443895, 0, 0, 0, 0.175, 8.75, 0, 0
0, (0.07,0), 360, 100.0, 359.9999792455129, 0, 0, 0, 0, 0, 0, 0
0, (0.07,0), 360, 100.0, 359.999968562896, 0, 0, 0, 0, 0, 0, 0
0, (0.07,0), 360, 100.0, 359.99996141812437, 0, 0, 0, 0, 0, 0, 0
0, (0.07,0), 359.9999, 100.0, 359.9999464119111, 0, 0, 0, 0, 0, 0, 0
0, (0.07,0), 359.9999, 100.0, 359.99994493453846, 0, 0, 0, 0, 0, 0, 0
0, (0.07,0), 359.9999, 100.0, 359.99994025215534, 0, 0, 0, 0, 0, 0, 0
0, (0.07,0), 359.9999, 100.0, 359.99993505127554, 0, 0, 0, 0, 0, 0, 0
0, (0.07,0), 359.9999, 100.0, 359.99992032145, 0, 0, 0, 0, 0, 0, 0
0, (0.07,0), 359.9999, 100.0, 359.9999119897991, 0, 0, 0, 0, 0, 0, 0
0, (0.07,0), 359.9999, 100.0, 359.9999013508814, 0, 0, 0, 0, 0, 0, 0
0, (0.07,0), 359.9999, 100.0, 359.99988551304256, 0, 0, 0, 0, 0, 0, 0
0, (0.07,0), 359.9999, 100.0, 359.9998671083587, 0, 0, 0, 0, 0, 0, 0
0, (0.07,0), 359.9999, 100.0, 359.9998534585138, 0, 0, 0, 0, 0, 0, 0
0, (0.07,0), 359.9998, 100.0, 359.99984103951016, 0, 0, 0, 0, 0, 0, 0
0, (0.07,0), 359.9998, 100.0, 359.9998247297541, 0, 0, 0, 0, 0, 0, 0
0, (0.07,0), 359.9998, 100.0, 359.99980943811016, 0, 0, 0, 0, 0, 0, 0
0, (0.07,0), 359.9998, 100.0, 359.9997923790323, 0, 0, 0, 0, 0, 0, 0
0, (0.07,0), 359.9998, 100.0, 359.9997766649303, 0, 0, 0, 0, 0, 0, 0
0, (0.07,0), 359.9998, 100.0, 359.99975901009054, 0, 0, 0, 0, 0, 0, 0
0, (0.07,0), 359.9998, 100.0, 359.99975006753266, 0, 0, 0, 0, 0, 0, 0
0, (0.07,0), 359.9997, 100.0, 359.99973610572545, 0, 0, 0, 0, 0, 0, 0
358.68, (0.14,-0), 356.7597, 100.0, 357.0597220806501, 0.18, 0.18, -0.0018, 0.077, 3.849, -0.0887, -0.0887
351.84, (0.733,-0.07), 349.9197, 100.0, 349.9197074445111, -8.16, -8.16, -0.0338, 0.2356, 11.7795, -1.6891, -1.6891
351.84, (1.913,-0.239), 349.9197, 100.0, 349.9196930265844, -8.16, -8.16, -0.0571, 0.3979, 19.8965, -2.853, -2.853
351.84, (3.612,-0.483), 349.9197, 100.0, 349.91967181015985, -8.16, -8.16, -0.071, 0.4949, 24.7469, -3.5484, -3.5484
351.84, (5.592,-0.767), 349.9197, 100.0, 349.9196555690879, -8.16, -8.16, -0.071, 0.4949, 24.7469, -3.5484, -3.5484
351.84, (7.374,-1.022), 349.9196, 100.0, 349.9196398130111, -8.16, -8.16, -0.071, 0.4949, 24.7469, -3.5484, -3.5484
351.84, (9.353,-1.306), 349.9196, 100.0, 349.91962020614807, -8.16, -8.16, -0.071, 0.4949, 24.7469, -3.5484, -3.5484
1.02, (11.346,-1.439), 359.0996, 100.0, 359.0995984228135, 0, 0, 0.0089, 0.4999, 24.996, 0.445, 0.445
2.1, (13.145,-1.373), 0.1796, 100.0, 0.1795822390551345, 2.1, 2.1, 0.0183, 0.4997, 24.9832, 0.9161, 0.9161
356.46, (15.144,-1.354), 354.7804, 100.0, 355.1404188926143, -2.1, -2.1, -0.0277, 0.4992, 24.9615, -1.3868, -1.3868
351.84, (16.93,-1.577), 350.1604, 100.0, 350.16040272071405, -8.16, -8.16, -0.071, 0.4949, 24.7469, -3.5484, -3.5484
345.78, (18.898,-1.923), 344.1004, 100.0, 344.40038676699663, -13.14, -13.14, -0.1228, 0.4847, 24.234, -6.1411, -6.1411
337.02, (20.602,-2.498), 335.3404, 100.0, 336.0603737628692, -21.3, -21.3, -0.1894, 0.4627, 23.1369, -9.4703, -9.4703
331.5, (22.208,-3.31), 329.8204, 100.0, 329.8203587892873, -28.5, -28.5, -0.2386, 0.4394, 21.9704, -11.929, -11.929
331.5, (23.087,-3.787), 329.8203, 100.0, 329.8203494808798, -28.5, -28.5, -0.2386, 0.4394, 21.9704, -11.929, -11.929
328.62, (24.135,-4.371), 326.9403, 100.0, 326.9403389468495, -29.46, -29.46, -0.2604, 0.4269, 21.3433, -13.0178, -13.0178
321.12, (25.096,-5.087), 319.4403, 100.0, 319.44033073236824, -38.88, -38.88, -0.3138, 0.3892, 19.4616, -15.6923, -15.6923
321.12, (26.186,-5.966), 319.4403, 100.0, 319.44032181792164, -38.88, -38.88, -0.3138, 0.3892, 19.4616, -15.6923, -15.6923
328.44, (27.635,-7.031), 326.7603, 100.0, 325.9803096536617, -33.42, -33.42, -0.2675, 0.4224, 21.1222, -13.3736, -13.3736
327, (29.195,-7.929), 325.3203, 100.0, 326.340297269116, -30.96, -30.96, -0.2648, 0.4241, 21.2058, -13.2406, -13.2406
322.2, (30.794,-9.128), 320.5203, 100.0, 319.80027945855034, -38.82, -38.82, -0.3114, 0.3912, 19.5598, -15.5697, -15.5697
331.26, (32.303,-10.106), 329.5803, 100.0, 329.58026266065116, -29.46, -29.46, -0.2404, 0.4384, 21.9203, -12.0209, -12.0209
331.26, (34.056,-11.067), 329.5802, 100.0, 329.5802479548467, -28.74, -28.74, -0.2404, 0.4384, 21.9203, -12.0209, -12.0209
331.26, (35.635,-11.933), 329.5802, 100.0, 329.5802380205205, -28.74, -28.74, -0.2404, 0.4384, 21.9203, -12.0209, -12.0209
332.28, (37.39,-12.891), 330.6002, 100.0, 330.60021696773936, -28.74, -28.74, -0.2326, 0.4426, 22.1308, -11.6288, -11.6288
341.46, (39.051,-13.578), 339.7802, 100.0, 339.78020612132167, -19.26, -19.26, -0.159, 0.4741, 23.7025, -7.9492, -7.9492
338.4, (40.755,-14.161), 336.7202, 100.0, 337.74018928650787, -19.5, -19.5, -0.1758, 0.4681, 23.4046, -8.7879, -8.7879
331.2, (42.548,-15.041), 329.5202, 100.0, 329.520171092399, -28.8, -28.8, -0.2409, 0.4382, 21.9077, -12.0438, -12.0438
331.2, (44.125,-15.908), 329.5202, 100.0, 329.5201591659731, -28.8, -28.8, -0.2409, 0.4382, 21.9077, -12.0438, -12.0438
331.2, (45.878,-16.872), 329.5201, 100.0, 329.5201391950522, -28.8, -28.8, -0.2409, 0.4382, 21.9077, -12.0438, -12.0438
332.22, (47.456,-17.737), 330.5401, 100.0, 330.24012659610304, -28.8, -28.8, -0.2354, 0.4411, 22.0573, -11.7676, -11.7676
341.4, (49.303,-18.498), 339.7201, 100.0, 339.72011228899385, -18.6, -18.6, -0.1595, 0.4739, 23.6942, -7.974, -7.974
336.18, (50.994,-19.113), 334.5001, 100.0, 334.92009279043464, -22.08, -22.08, -0.1986, 0.4589, 22.9439, -9.9287, -9.9287
331.14, (52.765,-20.04), 329.4601, 100.0, 329.460078878589, -28.86, -28.86, -0.2413, 0.4379, 21.895, -12.0668, -12.0668
331.14, (54.342,-20.909), 329.4601, 100.0, 329.4600666162571, -28.86, -28.86, -0.2413, 0.4379, 21.895, -12.0668, -12.0668
331.14, (56.093,-21.874), 329.4601, 100.0, 329.46005434825844, -28.86, -28.86, -0.2413, 0.4379, 21.895, -12.0668, -12.0668
321, (57.75,-22.99), 319.32, 100.0, 319.6800399186717, -37.5, -37.5, -0.3122, 0.3905, 19.5271, -15.6106, -15.6106
321, (59.149,-24.123), 319.32, 100.0, 319.32002170131426, -39, -39, -0.3147, 0.3886, 19.4286, -15.733, -15.733
321, (60.703,-25.381), 319.32, 100.0, 319.32000274628035, -39, -39, -0.3147, 0.3886, 19.4286, -15.733, -15.733
325.68, (62.283,-26.606), 324, 100.0, 323.99998972272766, -35.52, -35.52, -0.2819, 0.413, 20.6475, -14.0954, -14.0954
331.26, (63.84,-27.508), 329.58, 100.0, 329.57997135134565, -28.74, -28.74, -0.2404, 0.4384, 21.9203, -12.0209, -12.0209
331.62, (65.594,-28.47), 329.9399, 100.0, 329.57994994554747, -28.74, -28.74, -0.2404, 0.4384, 21.9203, -12.0209, -12.0209
341.58, (67.24,-29.193), 339.8999, 100.0, 338.99993052512076, -20.46, -20.46, -0.1654, 0.4718, 23.5921, -8.2711, -8.2711
341.58, (68.947,-29.762), 339.8999, 100.0, 339.89991413194366, -18.42, -18.42, -0.158, 0.4744, 23.7191, -7.8995, -7.8995
341.58, (70.845,-30.394), 339.8999, 100.0, 339.8998961944614, -18.42, -18.42, -0.158, 0.4744, 23.7191, -7.8995, -7.8995
351.6, (72.593,-30.812), 349.9199, 100.0, 349.19988319378456, -10.26, -10.26, -0.0793, 0.4937, 24.684, -3.9626, -3.9626
351.6, (74.572,-31.104), 349.9199, 100.0, 349.9198722830962, -8.4, -8.4, -0.073, 0.4946, 24.7318, -3.6521, -3.6521
351.6, (76.55,-31.397), 349.9198, 100.0, 349.91984939260385, -8.4, -8.4, -0.073, 0.4946, 24.7318, -3.6521, -3.6521
0.42, (78.343,-31.539), 358.7398, 100.0, 358.0198328919731, -1.38, -1.38, -0.0026, 0.5, 24.9997, -0.1309, -0.1309
1.8, (80.342,-31.479), 0.1198, 100.0, 0.11981338957505662, 1.8, 1.8, 0.0157, 0.4998, 24.9877, 0.7853, 0.7853
1.8, (82.141,-31.423), 0.1198, 100.0, 0.11979909707285204, 1.8, 1.8, 0.0157, 0.4998, 24.9877, 0.7853, 0.7853
1.8, (84.14,-31.36), 0.1198, 100.0, 0.11978560405211884, 1.8, 1.8, 0.0157, 0.4998, 24.9877, 0.7853, 0.7853
1.8, (85.939,-31.303), 0.1198, 100.0, 0.11976968227045973, 1.8, 1.8, 0.0157, 0.4998, 24.9877, 0.7853, 0.7853
1.8, (87.938,-31.241), 0.1198, 100.0, 0.11975243401027957, 1.8, 1.8, 0.0157, 0.4998, 24.9877, 0.7853, 0.7853
354.24, (89.936,-31.287), 352.4402, 100.0, 352.44023771829075, -4.62, -4.62, -0.0502, 0.4975, 24.8738, -2.509, -2.509
359.28, (91.606,-31.453), 357.4802, 100.0, 356.34022291156913, -2.94, -2.94, -0.0132, 0.4058, 20.2893, -0.6589, -0.6589
9.54, (92.701,-31.383), 7.7402, 100.0, 6.660208151797002, 7.62, 7.62, 0.0344, 0.2315, 11.5727, 1.7213, 1.7213
19.56, (93.228,-31.259), 17.7602, 100.0, 17.40019033689474, 18.12, 18.12, 0.0181, 0.0519, 2.597, 0.9044, 0.9044
30.18, (93.254,-31.249), 28.3802, 100.0, 27.900173851833895, 0, 0, 0, 0, 0, 0, 0
39.96, (93.254,-31.249), 38.1602, 100.0, 37.20016074051215, 0, 0, 0, 0, 0, 0, 0
50.22, (93.254,-31.249), 48.4201, 100.0, 48.06014501666517, 0, 0, 0, 0, 0, 0, 0
60.48, (93.254,-31.249), 58.6801, 100.0, 58.320127810323726, 0, 0, 0, 0, 0, 0, 0
70.8, (93.254,-31.249), 69.0001, 100.0, 68.64010981198615, 0, 0, 0, 0, 0, 0, 0
80.88, (93.254,-31.249), 79.0801, 100.0, 78.4200948526234, 0, 0, 0, 0, 0, 0, 0
91.08, (93.254,-31.249), 89.2801, 100.0, 88.86007446827949, 0, 0, 0, -0, -0, 0, 0
101.28, (93.254,-31.249), 99.4801, 100.0, 98.8200658046283, 180, 180, 0, -0, -0, 0, 0
111.48, (93.254,-31.249), 109.68, 100.0, 109.02004713936421, 180, 180, 0, -0, -0, 0, 0
121.68, (93.254,-31.249), 119.88, 100.0, 119.5200299473362, 180, 180, 0, -0, -0, 0, 0
131.94, (93.254,-31.249), 130.14, 100.0, 129.00001995598222, 180, 180, 0, -0, -0, 0, 0
142.08, (93.254,-31.249), 140.28, 100.0, 139.26000132208497, 180, 180, 0, -0, -0, 0, 0
152.16, (93.254,-31.249), 150.36, 100.0, 149.63998465359035, 180, 180, 0, -0, -0, 0, 0
162.24, (93.254,-31.249), 160.44, 100.0, 160.07996635890882, 180, 180, 0, -0, -0, 0, 0
172.44, (93.254,-31.249), 170.6399, 100.0, 170.33994981122865, 180, 180, 0, -0, -0, 0, 0
172.8, (92.979,-31.215), 170.9999, 100.0, 170.9999402499745, 172.8, 172.8, 0.0185, -0.1468, -7.3416, 0.9275, 0.9275
167.76, (92.024,-31.067), 165.9599, 100.0, 166.37992449597536, 169.2, 169.2, 0.0658, -0.3142, -15.7097, 3.2876, 3.2876
158.22, (90.612,-30.631), 156.4199, 100.0, 157.13990854067922, 160.32, 160.32, 0.1746, -0.4535, -22.6769, 8.7321, 8.7321
148.98, (88.821,-29.747), 147.1799, 100.0, 147.8998932416758, 150.66, 150.66, 0.2523, -0.4317, -21.5849, 12.6132, 12.6132
145.32, (87.026,-28.477), 143.5199, 100.0, 143.2198768068407, 143.94, 143.94, 0.2866, -0.4097, -20.4838, 14.3323, 14.3323
151.92, (85.296,-27.476), 150.1199, 100.0, 150.11985990587593, 151.92, 151.92, 0.2354, -0.4411, -22.0573, 11.7676, 11.7676
148.02, (83.547,-26.507), 146.2198, 100.0, 146.21984099411034, 149.04, 149.04, 0.2648, -0.4241, -21.2058, 13.2406, 13.2406
138.3, (82.268,-25.549), 136.4998, 100.0, 137.51983085454006, 140.34, 140.34, 0.3259, -0.3792, -18.959, 16.2958, 16.2958
130.5, (80.883,-24.109), 128.6998, 100.0, 128.69980979662785, 130.5, 130.5, 0.3802, -0.3247, -16.2362, 19.0101, 19.0101
138.6, (79.497,-22.67), 136.7998, 100.0, 136.43979750688987, 137.28, 137.28, 0.333, -0.373, -18.6485, 16.6503, 16.6503
140.76, (77.953,-21.399), 138.9598, 100.0, 138.95977925088803, 140.76, 140.76, 0.3163, -0.3873, -19.3626, 15.8143, 15.8143
140.76, (76.558,-20.261), 138.9598, 100.0, 138.95976715115572, 140.76, 140.76, 0.3163, -0.3873, -19.3626, 15.8143, 15.8143
140.76, (75.009,-18.996), 138.9598, 100.0, 138.9597517529407, 140.76, 140.76, 0.3163, -0.3873, -19.3626, 15.8143, 15.8143
140.76, (73.46,-17.731), 138.9597, 100.0, 138.9597350592761, 140.76, 140.76, 0.3163, -0.3873, -19.3626, 15.8143, 15.8143
149.76, (71.989,-16.697), 147.9597, 100.0, 147.23972445918255, 148.02, 148.02, 0.2572, -0.4288, -21.4382, 12.861, 12.861
142.68, (70.304,-15.624), 140.8797, 100.0, 141.23970404998494, 144.18, 144.18, 0.3006, -0.3995, -19.9764, 15.0314, 15.0314
142.68, (68.748,-14.367), 140.8797, 100.0, 140.51968836968052, 141.3, 141.3, 0.3056, -0.3957, -19.7859, 15.2813, 15.2813
150.9, (67.231,-13.403), 149.0997, 100.0, 149.0996709304673, 150.9, 150.9, 0.2432, -0.4369, -21.8443, 12.1584, 12.1584
150.9, (65.483,-12.43), 149.0997, 100.0, 149.09965806968165, 150.9, 150.9, 0.2432, -0.4369, -21.8443, 12.1584, 12.1584
150.54, (63.736,-11.457), 148.7396, 100.0, 149.09963958670016, 150.9, 150.9, 0.2432, -0.4369, -21.8443, 12.1584, 12.1584
140.7, (62.089,-10.327), 138.8996, 100.0, 139.25962381746078, 142.02, 142.02, 0.3143, -0.3889, -19.4451, 15.7127, 15.7127
135.12, (60.729,-9.149), 133.3196, 100.0, 133.97961013182336, 136.74, 136.74, 0.3487, -0.3583, -17.9167, 17.4354, 17.4354
135.24, (59.373,-7.68), 133.4396, 100.0, 133.1395959352639, 133.92, 133.92, 0.3539, -0.3532, -17.6591, 17.6962, 17.6962
144.66, (57.993,-6.527), 142.8596, 100.0, 142.13958132788957, 142.92, 142.92, 0.2943, -0.4042, -20.21, 14.7158, 14.7158
154.56, (56.27,-5.517), 152.7596, 100.0, 152.27956776306064, 153.12, 153.12, 0.2186, -0.4497, -22.4851, 10.9279, 10.9279
163.98, (54.4,-4.812), 162.1795, 100.0, 161.75954881345604, 162.6, 162.6, 0.1415, -0.4796, -23.9779, 7.0753, 7.0753
174.42, (52.438,-4.439), 172.6195, 100.0, 171.59953022665303, 172.68, 172.68, 0.0575, -0.4967, -24.8343, 2.8734, 2.8734
183.78, (50.44,-4.405), 181.9795, 100.0, 181.6195152541799, -177.96, -177.96, -0.0298, -0.4991, -24.9555, -1.4914, -1.4914
191.4, (48.465,-4.706), 189.5995, 100.0, 189.59950709052484, -168.6, -168.6, -0.0988, -0.4901, -24.5068, -4.9414, -4.9414
191.4, (46.701,-5.061), 189.5995, 100.0, 189.5994955267078, -168.6, -168.6, -0.0988, -0.4901, -24.5068, -4.9414, -4.9414
198, (44.756,-5.524), 196.1995, 100.0, 195.47947953957055, -163.8, -163.8, -0.1485, -0.4774, -23.8716, -7.426, -7.426
201.6, (42.889,-6.24), 199.7995, 100.0, 199.79946501724822, -158.4, -158.4, -0.1841, -0.4649, -23.2444, -9.2031, -9.2031
202.5, (41.031,-6.979), 200.6994, 100.0, 200.69944553624916, -158.4, -158.4, -0.1913, -0.4619, -23.097, -9.5671, -9.5671
211.32, (39.437,-7.811), 209.5194, 100.0, 209.87943042608617, -149.4, -149.4, -0.2626, -0.4255, -21.2749, -13.1294, -13.1294
201.36, (37.652,-8.708), 199.5594, 100.0, 200.21941398611102, -156.36, -156.36, -0.1875, -0.4635, -23.1763, -9.3733, -9.3733
191.52, (35.935,-9.242), 189.7194, 100.0, 190.3794011552347, -165.54, -165.54, -0.1055, -0.4887, -24.4372, -5.2746, -5.2746
181.92, (33.953,-9.489), 180.1194, 100.0, 180.77938269173106, -176.4, -176.4, -0.0225, -0.4995, -24.9747, -1.1254, -1.1254
172.32, (31.958,-9.395), 170.5194, 100.0, 170.87936830647126, 173.7, 173.7, 0.0637, -0.4959, -24.7963, 3.1853, 3.1853
168.9, (30.181,-9.105), 167.0993, 100.0, 168.17934924418697, 170.7, 170.7, 0.087, -0.4924, -24.6187, 4.3498, 4.3498
160.5, (28.259,-8.564), 158.6993, 100.0, 158.69933125688215, 160.5, 160.5, 0.1669, -0.4713, -23.566, 8.3452, 8.3452
168.42, (26.533,-8.059), 166.6193, 100.0, 166.6193116579183, 167.4, 167.4, 0.1004, -0.4898, -24.4911, 5.0184, 5.0184
170.58, (24.758,-7.76), 168.7793, 100.0, 168.77929518312362, 170.58, 170.58, 0.0818, -0.4933, -24.6629, 4.0918, 4.0918
160.44, (22.822,-7.27), 158.6393, 100.0, 159.29927732254956, 162.06, 162.06, 0.162, -0.473, -23.6521, 8.0979, 8.0979
156.9, (20.945,-6.58), 155.0993, 100.0, 155.5192642821455, 158.34, 158.34, 0.1928, -0.4613, -23.0668, 9.6396, 9.6396
150.36, (19.349,-5.751), 148.5592, 100.0, 148.55924818076502, 150.36, 150.36, 0.2473, -0.4346, -21.7287, 12.3637, 12.3637
150.36, (18.828,-5.454), 148.5592, 100.0, 148.55924136287956, 150.36, 150.36, 0.2473, -0.4346, -21.7287, 12.3637, 12.3637
150.36, (18.656,-5.356), 148.5592, 100.0, 148.55924070082614, 150.36, 150.36, 0.2448, -0.4302, -21.5115, 12.2401, 12.2401
150.36, (18.492,-5.263), 148.5592, 100.0, 148.5592393683526, 150.36, 150.36, 0.2329, -0.4094, -20.4685, 11.6466, 11.6466
150.36, (18.331,-5.171), 148.5592, 100.0, 148.55923615732303, 150.36, 150.36, 0.2295, -0.4033, -20.1643, 11.4735, 11.4735
150.36, (18.174,-5.082), 148.5592, 100.0, 148.5592357815974, 150.36, 150.36, 0.2235, -0.3929, -19.6428, 11.1768, 11.1768
150.36, (17.874,-4.912), 148.5592, 100.0, 148.55923501521997, 150.36, 150.36, 0.2112, -0.3711, -18.5563, 10.5586, 10.5586
148.74, (17.737,-4.829), 146.9392, 100.0, 146.93923444363824, 150.36, 150.36, 0.2076, -0.3419, -17.0964, 10.3784, 10.3784
137.58, (16.911,-4.2), 135.7792, 100.0, 136.49921995472852, 139.5, 139.5, 0.143, -0.1605, -8.0264, 7.1512, 7.1512
129.54, (16.712,-4.003), 127.7392, 100.0, 127.73920651415797, 133.2, 133.2, 0.0278, -0.0229, -1.1459, 1.3881, 1.3881
129.54, (16.707,-3.997), 127.7392, 100.0, 127.739194886043, 180, 180, 0, -0, -0, 0, 0
129.54, (16.707,-3.997), 127.7392, 100.0, 127.7391822310475, 180, 180, 0, -0, -0, 0, 0
129.54, (16.707,-3.997), 127.7392, 100.0, 127.73917537641817, 180, 180, 0, -0, -0, 0, 0
129.54, (16.707,-3.997), 127.7392, 100.0, 127.73916633388474, 180, 180, 0, -0, -0, 0, 0
130.92, (16.707,-3.997), 129.1192, 100.0, 128.09915402539625, 180, 180, 0, -0, -0, 0, 0
139.56, (16.707,-3.997), 137.7591, 100.0, 137.75914782794035, 180, 180, 0, -0, -0, 0, 0
139.56, (16.707,-3.997), 137.7591, 100.0, 137.759132522126, 180, 180, 0, -0, -0, 0, 0
139.56, (16.707,-3.997), 137.7591, 100.0, 137.75911652903235, 180, 180, 0, -0, -0, 0, 0
139.56, (16.707,-3.997), 137.7591, 100.0, 137.75911161546225, 180, 180, 0, -0, -0, 0, 0
139.56, (16.707,-3.997), 137.7591, 100.0, 137.75910745775414, 180, 180, 0, -0, -0, 0, 0
139.56, (16.707,-3.997), 137.7591, 100.0, 137.75909345732327, 180, 180, 0, -0, -0, 0, 0
139.56, (16.707,-3.997), 137.7591, 100.0, 137.75908319552798, 180, 180, 0, -0, -0, 0, 0
139.56, (16.707,-3.997), 137.7591, 100.0, 137.75907464757998, 180, 180, 0, -0, -0, 0, 0
139.56, (16.707,-3.997), 137.7591, 100.0, 137.75906555453855, 180, 180, 0, -0, -0, 0, 0
139.56, (16.707,-3.997), 137.7591, 100.0, 137.75905461069382, 180, 180, 0, -0, -0, 0, 0
131.04, (16.707,-3.997), 129.239, 100.0, 129.2390347140888, 180, 180, 0, -0, -0, 0, 0
129.48, (16.707,-3.997), 127.679, 100.0, 127.67902220937071, 180, 180, 0, -0, -0, 0, 0
129.48, (16.707,-3.997), 127.679, 100.0, 127.67900828213989, 180, 180, 0, -0, -0, 0, 0
136.14, (16.707,-3.997), 134.339, 100.0, 133.6189896600893, 180, 180, 0, -0, -0, 0, 0
138.54, (16.707,-3.997), 136.739, 100.0, 136.73897136420575, 180, 180, 0, -0, -0, 0, 0
129, (16.707,-3.997), 127.199, 100.0, 127.19896429055616, 180, 180, 0, -0, -0, 0, 0
135.12, (16.707,-3.997), 133.3189, 100.0, 132.53894847109214, 180, 180, 0, -0, -0, 0, 0
139.02, (16.707,-3.997), 137.2189, 100.0, 137.21893212375124, 180, 180, 0, -0, -0, 0, 0
131.04, (16.707,-3.997), 129.2389, 100.0, 130.6189195084524, 180, 180, 0, -0, -0, 0, 0
134.7, (16.707,-3.997), 132.8989, 100.0, 132.5389048847173, 180, 180, 0, -0, -0, 0, 0
144.18, (16.707,-3.997), 142.3789, 100.0, 141.5388883285147, 180, 180, 0, -0, -0, 0, 0
149.28, (16.707,-3.997), 147.4789, 100.0, 147.4788762694877, 180, 180, 0, -0, -0, 0, 0
149.28, (16.707,-3.997), 147.4789, 100.0, 147.4788650975227, 180, 180, 0, -0, -0, 0, 0
139.08, (16.707,-3.997), 137.2789, 100.0, 137.2788501426865, 180, 180, 0, -0, -0, 0, 0
129.06, (16.707,-3.997), 127.2588, 100.0, 127.25884228766262, 180, 180, 0, -0, -0, 0, 0
118.8, (16.707,-3.997), 116.9988, 100.0, 116.99883524346333, 180, 180, 0, -0, -0, 0, 0
118.8, (16.707,-3.997), 116.9988, 100.0, 116.9988267518151, 180, 180, 0, -0, -0, 0, 0
118.8, (16.707,-3.997), 116.9988, 100.0, 116.99882071437897, 180, 180, 0, -0, -0, 0, 0
127.02, (16.707,-3.997), 125.2188, 100.0, 125.21881572957497, 180, 180, 0, -0, -0, 0, 0
136.26, (16.707,-3.997), 134.4588, 100.0, 134.1588013942033, 180, 180, 0, -0, -0, 0, 0
138.84, (16.707,-3.997), 137.0388, 100.0, 137.0387820299626, 180, 180, 0, -0, -0, 0, 0
147.72, (16.707,-3.997), 145.9188, 100.0, 145.19876864446104, 180, 180, 0, -0, -0, 0, 0
157.38, (16.707,-3.997), 155.5787, 100.0, 155.57874862971457, 180, 180, 0, -0, -0, 0, 0
159.12, (16.707,-3.997), 157.3187, 100.0, 157.31873496832446, 180, 180, 0, -0, -0, 0, 0
159.12, (16.707,-3.997), 157.3187, 100.0, 157.3187148292042, 180, 180, 0, -0, -0, 0, 0
159.12, (16.707,-3.997), 157.3187, 100.0, 157.31870102441263, 180, 180, 0, -0, -0, 0, 0
159.12, (16.707,-3.997), 157.3187, 100.0, 157.31869331566247, 180, 180, 0, -0, -0, 0, 0
161.16, (16.707,-3.997), 159.3587, 100.0, 158.33868106274264, 180, 180, 0, -0, -0, 0, 0
169.32, (16.707,-3.997), 167.5187, 100.0, 167.51866179562907, 180, 180, 0, -0, -0, 0, 0
177.18, (16.707,-3.997), 175.3786, 100.0, 174.59864533333956, 180, 180, 0, -0, -0, 0, 0
179.34, (16.707,-3.997), 177.5386, 100.0, 177.5386282670025, 180, 180, 0, -0, -0, 0, 0
179.34, (16.707,-3.997), 177.5386, 100.0, 177.53860898971035, 180, 180, 0, -0, -0, 0, 0
182.58, (16.707,-3.997), 180.7786, 100.0, 180.77858866783146, -180, -180, -0, -0, -0, -0, -0
189.48, (16.707,-3.997), 187.6786, 100.0, 187.67856913664843, -180, -180, -0, -0, -0, -0, -0
190.86, (16.707,-3.997), 189.0586, 100.0, 188.75855413657774, -180, -180, -0, -0, -0, -0, -0
198.96, (16.707,-3.997), 197.1585, 100.0, 197.87853763530103, -180, -180, -0, -0, -0, -0, -0
189.42, (16.707,-3.997), 187.6185, 100.0, 187.61852073043232, -180, -180, -0, -0, -0, -0, -0
179.1, (16.707,-3.997), 177.2985, 100.0, 178.01850307207403, -180, -180, 0, -0, -0, 0, 0
179.1, (16.707,-3.997), 177.2985, 100.0, 177.29848224888403, 180, 180, 0, -0, -0, 0, 0
177.72, (16.707,-3.997), 175.9185, 100.0, 176.21846889311726, 180, 180, 0, -0, -0, 0, 0
168.84, (16.707,-3.997), 167.0385, 100.0, 167.03845432314108, 180, 180, 0, -0, -0, 0, 0
161.94, (16.707,-3.997), 160.1384, 100.0, 160.79843819841167, 180, 180, 0, -0, -0, 0, 0
158.64, (16.707,-3.997), 156.8384, 100.0, 156.83841840818877, 180, 180, 0, -0, -0, 0, 0
158.64, (16.707,-3.997), 156.8384, 100.0, 156.83840443744913, 180, 180, 0, -0, -0, 0, 0
158.64, (16.707,-3.997), 156.8384, 100.0, 156.83838722680287, 180, 180, 0, -0, -0, 0, 0
148.74, (16.707,-3.997), 146.9384, 100.0, 148.01837148462832, 180, 180, 0, -0, -0, 0, 0
148.44, (16.707,-3.997), 146.6384, 100.0, 146.63835301816815, 180, 180, 0, -0, -0, 0, 0
148.44, (16.707,-3.997), 146.6383, 100.0, 146.63833666606993, 180, 180, 0, -0, -0, 0, 0
148.44, (16.707,-3.997), 146.6383, 100.0, 146.6383224783996, 180, 180, 0, -0, -0, 0, 0
148.08, (16.707,-3.997), 146.2783, 100.0, 146.63831011706884, 180, 180, 0, -0, -0, 0, 0
138.18, (16.707,-3.997), 136.3783, 100.0, 136.73829238877698, 180, 180, 0, -0, -0, 0, 0
138.54, (16.707,-3.997), 136.7383, 100.0, 136.37828059091493, 180, 180, 0, -0, -0, 0, 0
148.2, (16.707,-3.997), 146.3983, 100.0, 145.9782606679965, 180, 180, 0, -0, -0, 0, 0
143.4, (16.707,-3.997), 141.5982, 100.0, 141.9582435455908, 180, 180, 0, -0, -0, 0, 0
138.18, (16.707,-3.997), 136.3782, 100.0, 136.37822482517038, 180, 180, 0, -0, -0, 0, 0
128.04, (16.707,-3.997), 126.2382, 100.0, 126.65820992912343, 180, 180, 0, -0, -0, 0, 0
118.38, (16.707,-3.997), 116.5782, 100.0, 117.5381963515468, 180, 180, 0, -0, -0, 0, 0
112.62, (16.707,-3.997), 110.8182, 100.0, 111.53817971051932, 180, 180, 0, -0, -0, 0, 0
107.82, (16.707,-3.997), 106.0182, 100.0, 106.01816572584131, 180, 180, 0, -0, -0, 0, 0
102.84, (16.707,-3.997), 101.0381, 100.0, 101.03814603825096, 180, 180, 0, -0, -0, 0, 0
102.36, (16.707,-3.997), 100.5581, 100.0, 100.5581305961661, 180, 180, 0, -0, -0, 0, 0
107.94, (16.707,-3.997), 106.1381, 100.0, 106.13811459435328, 180, 180, 0, -0, -0, 0, 0
