Rotation, Location, Gyro Rotation, Sensor Optical Flow, Battery Level, Yaw, Pitch, Roll, Vy, Vx, AccX, AccY
0, (0.119,0), 360, 100.0, 359.9999948153583, 0, 0, 0, 0.022, 1.1, 0, 0
0, (0.119,0), 360, 100.0, 359.9999837812668, 0, 0, 0, 0, 0, 0, 0
0, (0.119,0), 360, 100.0, 359.99997090208313, 0, 0, 0, 0, 0, 0, 0
0, (0.119,0), 360, 100.0, 359.9999602885727, 0, 0, 0, 0, 0, 0, 0
0, (0.119,0), 359.9999, 100.0, 359.99993964662747, 0, 0, 0, 0, 0, 0, 0
0, (0.119,0), 359.9999, 100.0, 359.9999256900421, 0, 0, 0, 0, 0, 0, 0
0, (0.119,0), 359.9999, 100.0, 359.99991304817223, 0, 0, 0, 0, 0, 0, 0
0, (0.119,0), 359.9999, 100.0, 359.99989954510795, 0, 0, 0, 0, 0, 0, 0
0, (0.119,0), 359.9999, 100.0, 359.99988339830946, 0, 0, 0, 0, 0, 0, 0
0, (0.119,0), 359.9999, 100.0, 359.99986891796993, 0, 0, 0, 0, 0, 0, 0
0, (0.119,0), 359.9999, 100.0, 359.9998536749143, 0, 0, 0, 0, 0, 0, 0
0, (0.13,0), 359.9998, 100.0, 359.9998409781489, 0, 0, 0, 0.023, 1.15, 0, 0
0, (0.624,0), 359.9998, 100.0, 359.9998216184239, 0, 0, 0, 0.207, 10.35, 0, 0
0, (1.558,0), 359.9998, 100.0, 359.9998041083636, 0, 0, 0, 0.373, 18.65, 0, 0
0, (3.396,0), 359.9998, 100.0, 359.9997908845476, 0, 0, 0, 0.5, 25, 0, 0
0, (5.196,0), 359.9998, 100.0, 359.99977415370284, 0, 0, 0, 0.5, 25, 0, 0
354.24, (6.995,-0.046), 352.9198, 100.0, 353.9397606272226, -3.72, -3.72, -0.0413, 0.4983, 24.9145, -2.0659, -2.0659
351, (8.973,-0.336), 349.6797, 100.0, 349.6797423141565, -9, -9, -0.0782, 0.4938, 24.6922, -3.9109, -3.9109
351, (10.751,-0.618), 349.6797, 100.0, 349.67972865182736, -9, -9, -0.0782, 0.4938, 24.6922, -3.9109, -3.9109
351, (12.726,-0.931), 349.6797, 100.0, 349.67971095747447, -9, -9, -0.0782, 0.4938, 24.6922, -3.9109, -3.9109
346.2, (14.499,-1.241), 344.8797, 100.0, 346.01969509600184, -11.94, -11.94, -0.1096, 0.4878, 24.3922, -5.4791, -5.4791
340.8, (16.405,-1.844), 339.4797, 100.0, 339.47968015511753, -19.2, -19.2, -0.1644, 0.4722, 23.6094, -8.2217, -8.2217
340.8, (18.293,-2.502), 339.4797, 100.0, 339.4796681680704, -19.2, -19.2, -0.1644, 0.4722, 23.6094, -8.2217, -8.2217
350.88, (19.84,-2.905), 349.5597, 100.0, 348.53965280964377, -12, -12, -0.088, 0.4922, 24.6095, -4.4013, -4.4013
350.88, (21.815,-3.222), 349.5596, 100.0, 349.55963748018394, -9.12, -9.12, -0.0793, 0.4937, 24.684, -3.9626, -3.9626
358.98, (23.603,-3.408), 357.6596, 100.0, 356.9996247796585, -2.76, -2.76, -0.0147, 0.4998, 24.9893, -0.7329, -0.7329
0.9, (25.603,-3.385), 359.5796, 100.0, 359.5796122838715, 0.9, 0.9, 0.0079, 0.4999, 24.9969, 0.3927, 0.3927
0.9, (27.403,-3.357), 359.5796, 100.0, 359.57959707737945, 0.9, 0.9, 0.0079, 0.4999, 24.9969, 0.3927, 0.3927
0.9, (29.402,-3.326), 359.5796, 100.0, 359.57957574640096, 0.9, 0.9, 0.0079, 0.4999, 24.9969, 0.3927, 0.3927
0.9, (31.202,-3.298), 359.5796, 100.0, 359.5795633631076, 0.9, 0.9, 0.0079, 0.4999, 24.9969, 0.3927, 0.3927
0.9, (33.202,-3.266), 359.5795, 100.0, 359.57954436001273, 0.9, 0.9, 0.0079, 0.4999, 24.9969, 0.3927, 0.3927
0.9, (35.002,-3.238), 359.5795, 100.0, 359.5795289759958, 0.9, 0.9, 0.0079, 0.4999, 24.9969, 0.3927, 0.3927
5.58, (37,-3.171), 4.2595, 100.0, 3.8395122240084323, 4.14, 4.14, 0.045, 0.498, 24.8987, 2.2484, 2.2484
6.66, (38.976,-2.868), 5.3395, 100.0, 5.699498889587907, 8.1, 8.1, 0.0611, 0.4963, 24.8126, 3.0554, 3.0554
357.36, (40.774,-2.808), 355.8005, 100.0, 356.8205024654921, -0.84, -0.84, -0.0141, 0.4998, 24.99, -0.7068, -0.7068
348.12, (42.755,-3.062), 346.5605, 100.0, 346.8604838545762, -10.5, -10.5, -0.1004, 0.4898, 24.4911, -5.0184, -5.0184
338.64, (44.478,-3.578), 337.0805, 100.0, 338.1604696409972, -19.32, -19.32, -0.1733, 0.469, 23.4502, -8.6652, -8.6652
331.5, (46.274,-4.453), 329.9405, 100.0, 329.2204549906302, -29.58, -29.58, -0.2441, 0.4364, 21.8188, -12.2041, -12.2041
340.44, (48.108,-5.243), 338.8804, 100.0, 339.1804387131558, -19.62, -19.62, -0.1649, 0.472, 23.6008, -8.2464, -8.2464
330.48, (49.743,-5.99), 328.9204, 100.0, 329.6404199858527, -27.66, -27.66, -0.2409, 0.4382, 21.9077, -12.0438, -12.0438
320.76, (51.4,-7.105), 319.2004, 100.0, 319.92040101226394, -37.38, -37.38, -0.3114, 0.3912, 19.5598, -15.5697, -15.5697
311.82, (52.72,-8.327), 310.2604, 100.0, 311.34038337939955, -46.08, -46.08, -0.3663, 0.3404, 17.018, -18.3136, -18.3136
310.32, (54.019,-9.847), 308.7604, 100.0, 308.76036787471, -49.68, -49.68, -0.3812, 0.3235, 16.1764, -19.0611, -19.0611
310.32, (55.184,-11.22), 308.7604, 100.0, 308.76035581353847, -49.68, -49.68, -0.3812, 0.3235, 16.1764, -19.0611, -19.0611
318.78, (56.567,-12.661), 317.2203, 100.0, 316.86034011959623, -42.6, -42.6, -0.3318, 0.374, 18.7007, -16.5916, -16.5916
320.7, (58.111,-13.933), 319.1403, 100.0, 319.140322888387, -39.3, -39.3, -0.3167, 0.3869, 19.346, -15.8345, -15.8345
329.64, (59.576,-14.975), 328.0803, 100.0, 327.300311609617, -32.22, -32.22, -0.2586, 0.428, 21.3977, -12.9283, -12.9283
330.9, (61.321,-15.952), 329.3403, 100.0, 329.3403010454462, -29.1, -29.1, -0.2432, 0.4369, 21.8443, -12.1584, -12.1584
338.4, (62.931,-16.753), 336.8403, 100.0, 335.76029046297595, -23.7, -23.7, -0.1928, 0.4613, 23.0668, -9.6396, -9.6396
339.6, (64.816,-17.422), 338.0403, 100.0, 338.7602721893081, -19.02, -19.02, -0.1684, 0.4708, 23.5397, -8.4192, -8.4192
330.78, (66.62,-18.279), 329.2203, 100.0, 329.22025203855094, -29.22, -29.22, -0.2441, 0.4364, 21.8188, -12.2041, -12.2041
332.34, (68.369,-19.25), 330.7802, 100.0, 330.780235099828, -28.86, -28.86, -0.2321, 0.4429, 22.1429, -11.6056, -11.6056
341.04, (70.03,-19.938), 339.4802, 100.0, 339.480220028706, -19.32, -19.32, -0.1625, 0.4729, 23.6436, -8.1227, -8.1227
342.42, (71.922,-20.587), 340.8602, 100.0, 339.8402048816683, -18.96, -18.96, -0.1595, 0.4739, 23.6942, -7.974, -7.974
351.12, (73.673,-20.992), 349.5602, 100.0, 349.5601908063341, -9.54, -9.54, -0.0772, 0.494, 24.7003, -3.8591, -3.8591
347.34, (76.434,-21.453), 345.7802, 100.0, 345.78016282461823, -11.52, -11.52, -0.1096, 0.4878, 24.3922, -5.4791, -5.4791
340.92, (78.152,-21.989), 339.3601, 100.0, 339.36014596067264, -19.08, -19.08, -0.1634, 0.4725, 23.6266, -8.1722, -8.1722
340.92, (80.042,-22.643), 339.3601, 100.0, 339.36012878766, -19.08, -19.08, -0.1634, 0.4725, 23.6266, -8.1722, -8.1722
342, (81.933,-23.293), 340.4401, 100.0, 340.44010891058804, -19.08, -19.08, -0.1545, 0.4755, 23.7764, -7.7254, -7.7254
351.12, (83.687,-23.689), 349.5601, 100.0, 349.5600923565881, -9.66, -9.66, -0.0772, 0.494, 24.7003, -3.8591, -3.8591
0.84, (85.678,-23.848), 359.2801, 100.0, 358.5600708005689, -1.02, -1.02, 0.001, 0.5, 24.9999, 0.0524, 0.0524
1.14, (87.678,-23.808), 359.5801, 100.0, 359.5800564099611, 1.14, 1.14, 0.0099, 0.4999, 24.9951, 0.4974, 0.4974
5.88, (89.476,-23.74), 4.32, 100.0, 3.600041298475241, 4.02, 4.02, 0.045, 0.498, 24.8987, 2.2484, 2.2484
11.28, (91.446,-23.401), 9.72, 100.0, 9.720026738248839, 11.28, 11.28, 0.0978, 0.4903, 24.5171, 4.8901, 4.8901
11.28, (93.407,-23.01), 9.72, 100.0, 9.720011256073091, 11.28, 11.28, 0.0978, 0.4903, 24.5171, 4.8901, 4.8901
11.28, (95.369,-22.618), 9.72, 100.0, 9.719992705014521, 11.28, 11.28, 0.0978, 0.4903, 24.5171, 4.8901, 4.8901
11.28, (97.134,-22.266), 9.72, 100.0, 9.719974416786405, 11.28, 11.28, 0.0978, 0.4903, 24.5171, 4.8901, 4.8901
15.6, (98.894,-21.889), 14.04, 100.0, 13.07995050912179, 13.62, 13.62, 0.1264, 0.4838, 24.1883, 6.3186, 6.3186
21.36, (100.777,-21.221), 19.7999, 100.0, 19.799930700459658, 21.36, 21.36, 0.1821, 0.4657, 23.2828, 9.1057, 9.1057
15.06, (102.664,-20.56), 13.4999, 100.0, 13.799917110137317, 16.44, 16.44, 0.1324, 0.4821, 24.107, 6.6221, 6.6221
12.6, (104.62,-20.148), 11.0399, 100.0, 10.619901016447518, 11.34, 11.34, 0.1055, 0.4887, 24.4372, 5.2746, 5.2746
21.3, (106.523,-19.538), 19.7399, 100.0, 19.73988849792319, 21.3, 21.3, 0.1816, 0.4658, 23.2923, 9.0813, 9.0813
31.02, (108.141,-18.755), 29.4599, 100.0, 28.259876318469413, 29.04, 29.04, 0.2486, 0.4338, 21.6898, 12.4319, 12.4319
29.94, (109.849,-17.715), 28.3799, 100.0, 29.159857428148953, 31.44, 31.44, 0.2554, 0.4298, 21.4919, 12.7711, 12.7711
21.36, (111.662,-16.876), 19.7998, 100.0, 19.79984688901122, 21.36, 21.36, 0.1821, 0.4657, 23.2828, 9.1057, 9.1057
20.28, (113.526,-16.15), 18.7198, 100.0, 19.07982722433682, 21.36, 21.36, 0.1762, 0.4679, 23.3953, 8.8124, 8.8124
11.04, (115.261,-15.677), 9.4798, 100.0, 9.4798099970557, 12.12, 12.12, 0.0957, 0.4907, 24.5373, 4.7874, 4.7874
16.14, (117.214,-15.251), 14.5798, 100.0, 14.099791909916568, 14.7, 14.7, 0.135, 0.4814, 24.072, 6.7482, 6.7482
21.3, (119.092,-14.565), 19.7398, 100.0, 19.739774945245152, 21.3, 21.3, 0.1816, 0.4658, 23.2923, 9.0813, 9.0813
25.68, (120.758,-13.885), 24.1198, 100.0, 23.399754509116775, 23.94, 23.94, 0.211, 0.4533, 22.6651, 10.5496, 10.5496
31.38, (122.496,-12.898), 29.8197, 100.0, 29.819734540077008, 31.38, 31.38, 0.2604, 0.4269, 21.3433, 13.0178, 13.0178
23.76, (124.256,-11.953), 22.1997, 100.0, 22.199717423515672, 24.78, 24.78, 0.2015, 0.4576, 22.881, 10.0727, 10.0727
21.36, (126.117,-11.219), 19.7997, 100.0, 19.79970112768069, 21.36, 21.36, 0.1821, 0.4657, 23.2828, 9.1057, 9.1057
28.86, (127.757,-10.483), 27.2997, 100.0, 26.57968389549151, 27.12, 27.12, 0.2358, 0.4409, 22.0449, 11.7907, 11.7907
38.34, (129.426,-9.384), 36.7797, 100.0, 36.419665268675836, 36.84, 36.84, 0.3077, 0.3941, 19.7056, 15.3847, 15.3847
41.58, (130.783,-8.203), 40.0197, 100.0, 40.01965357960398, 41.58, 41.58, 0.3318, 0.374, 18.7007, 16.5916, 16.5916
41.58, (132.28,-6.875), 40.0196, 100.0, 40.0196376523224, 41.58, 41.58, 0.3318, 0.374, 18.7007, 16.5916, 16.5916
32.7, (133.697,-5.77), 31.1396, 100.0, 32.09962343414422, 34.74, 34.74, 0.2771, 0.4162, 20.8085, 13.8566, 13.8566
31.2, (135.404,-4.728), 29.6396, 100.0, 29.639608869726622, 31.2, 31.2, 0.259, 0.4277, 21.3841, 12.9507, 12.9507
40.68, (137.029,-3.566), 39.1196, 100.0, 38.75958998362756, 39.3, 39.3, 0.3235, 0.3812, 19.0611, 16.1764, 16.1764
32.64, (138.45,-2.464), 31.0796, 100.0, 32.2195722400204, 34.8, 34.8, 0.278, 0.4156, 20.7795, 13.9001, 13.9001
30.42, (140.158,-1.423), 28.8596, 100.0, 29.639555249292812, 31.2, 31.2, 0.259, 0.4277, 21.3841, 12.9507, 12.9507
20.88, (141.962,-0.565), 19.3195, 100.0, 19.31954210787252, 21.66, 21.66, 0.1782, 0.4672, 23.3582, 8.9103, 8.9103
16.62, (143.651,0.055), 15.0595, 100.0, 16.01952272134399, 18.72, 18.72, 0.151, 0.4766, 23.8324, 7.5509, 7.5509
10.62, (145.601,0.492), 9.0595, 100.0, 9.059504835233843, 10.62, 10.62, 0.0921, 0.4914, 24.5718, 4.6074, 4.6074
5.7, (147.574,0.818), 4.1395, 100.0, 4.439485888148701, 7.02, 7.02, 0.0523, 0.4973, 24.863, 2.6132, 2.6132
0.24, (149.372,0.87), 359.0405, 100.0, 359.0405134476278, 0.24, 0.24, 0.0021, 0.5, 24.9998, 0.1047, 0.1047
10.26, (151.362,1.04), 9.0605, 100.0, 8.640496498476676, 8.34, 8.34, 0.0854, 0.4926, 24.6322, 4.2724, 4.2724
10.26, (153.33,1.396), 9.0605, 100.0, 9.060482623103669, 10.26, 10.26, 0.0891, 0.492, 24.6002, 4.4529, 4.4529
10.26, (155.101,1.717), 9.0605, 100.0, 9.060468363482165, 10.26, 10.26, 0.0891, 0.492, 24.6002, 4.4529, 4.4529
10.26, (157.069,2.073), 9.0605, 100.0, 9.060450134612333, 10.26, 10.26, 0.0891, 0.492, 24.6002, 4.4529, 4.4529
10.26, (158.841,2.393), 9.0604, 100.0, 9.060434233496993, 10.26, 10.26, 0.0891, 0.492, 24.6002, 4.4529, 4.4529
10.26, (160.809,2.75), 9.0604, 100.0, 9.060417164944417, 10.26, 10.26, 0.0891, 0.492, 24.6002, 4.4529, 4.4529
10.26, (162.58,3.07), 9.0604, 100.0, 9.060400709784632, 10.26, 10.26, 0.0891, 0.492, 24.6002, 4.4529, 4.4529
16.32, (164.536,3.481), 15.1204, 100.0, 14.400385822850465, 14.52, 14.52, 0.1345, 0.4816, 24.0791, 6.723, 6.723
17.64, (166.424,4.139), 16.4404, 100.0, 16.860366088701095, 19.44, 19.44, 0.155, 0.4754, 23.7683, 7.7503, 7.7503
10.38, (168.371,4.587), 9.1804, 100.0, 9.180353744766519, 10.38, 10.38, 0.0901, 0.4918, 24.5909, 4.5044, 4.5044
10.38, (170.142,4.911), 9.1803, 100.0, 9.18034374830604, 10.38, 10.38, 0.0901, 0.4918, 24.5909, 4.5044, 4.5044
15.12, (172.102,5.307), 13.9203, 100.0, 13.56033037864149, 13.32, 13.32, 0.1274, 0.4835, 24.175, 6.3693, 6.3693
20.64, (173.802,5.894), 19.4403, 100.0, 19.440314961125054, 20.64, 20.64, 0.1762, 0.4679, 23.3953, 8.8124, 8.8124
11.76, (175.711,6.482), 10.5603, 100.0, 11.280299841056076, 13.5, 13.5, 0.108, 0.4882, 24.4093, 5.4025, 5.4025
4.68, (177.686,6.794), 3.4803, 100.0, 3.9002780980102294, 6.24, 6.24, 0.0444, 0.498, 24.901, 2.2224, 2.2224
0, (179.485,6.827), 359.0397, 100.0, 359.03971971564044, 0, 0, 0, 0.5, 25, 0, 0
4.44, (181.484,6.862), 3.4797, 100.0, 3.1797023998591905, 3.06, 3.06, 0.0361, 0.4987, 24.9348, 1.8048, 1.8048
10.02, (183.263,7.131), 9.0597, 100.0, 9.05968185591992, 10.02, 10.02, 0.087, 0.4924, 24.6187, 4.3498, 4.3498
10.02, (185.035,7.444), 9.0597, 100.0, 9.059664557326398, 10.02, 10.02, 0.087, 0.4924, 24.6187, 4.3498, 4.3498
18, (186.981,7.898), 17.0396, 100.0, 16.739641245283842, 16.32, 16.32, 0.152, 0.4763, 23.8165, 7.6008, 7.6008
25.74, (188.841,8.629), 24.7796, 100.0, 24.47962805616852, 24.42, 24.42, 0.2148, 0.4515, 22.5759, 10.7391, 10.7391
30.3, (190.411,9.508), 29.3396, 100.0, 29.339615396216082, 30.3, 30.3, 0.2523, 0.4317, 21.5849, 12.6132, 12.6132
22.74, (192.178,10.442), 21.7796, 100.0, 22.859602584593656, 24.66, 24.66, 0.2019, 0.4574, 22.8705, 10.0966, 10.0966
20.22, (194.049,11.148), 19.2596, 100.0, 19.259588939000523, 20.22, 20.22, 0.1728, 0.4692, 23.4593, 8.6406, 8.6406
18.48, (195.927,11.834), 17.5196, 100.0, 17.879571110471442, 20.22, 20.22, 0.1615, 0.4732, 23.6606, 8.0732, 8.0732
10.62, (197.676,12.255), 9.6596, 100.0, 8.999556977292459, 10.32, 10.32, 0.0865, 0.4925, 24.6232, 4.324, 4.324
20.04, (199.597,12.799), 19.0795, 100.0, 19.079539589060904, 19.68, 19.68, 0.1713, 0.4697, 23.4863, 8.5669, 8.5669
20.04, (201.288,13.416), 19.0795, 100.0, 19.07952325967149, 20.04, 20.04, 0.1713, 0.4697, 23.4863, 8.5669, 8.5669
20.04, (203.167,14.101), 19.0795, 100.0, 19.0795097781775, 20.04, 20.04, 0.1713, 0.4697, 23.4863, 8.5669, 8.5669
27.84, (205.005,14.884), 26.8795, 100.0, 26.51949073388056, 26.4, 26.4, 0.2307, 0.4436, 22.1793, 11.536, 11.536
23.04, (206.599,15.718), 22.0795, 100.0, 23.039480483758805, 25.14, 25.14, 0.2034, 0.4568, 22.8386, 10.1684, 10.1684
13.44, (208.491,16.359), 12.4795, 100.0, 13.079464300202293, 15.36, 15.36, 0.1213, 0.4851, 24.2532, 6.065, 6.065
3.96, (210.465,16.67), 2.9994, 100.0, 3.7194442473182674, 5.64, 5.64, 0.0408, 0.4983, 24.9166, 2.0398, 2.0398
354.84, (212.462,16.642), 353.7606, 100.0, 353.7605529533866, -4.08, -4.08, -0.045, 0.498, 24.8987, -2.2484, -2.2484
349.02, (214.237,16.348), 347.9405, 100.0, 347.9405395784964, -10.62, -10.62, -0.0952, 0.4908, 24.5423, -4.7617, -4.7617
339.36, (215.965,15.849), 338.2805, 100.0, 338.640524964057, -19.26, -19.26, -0.1733, 0.469, 23.4502, -8.6652, -8.6652
339.36, (217.836,15.144), 338.2805, 100.0, 338.28051535383895, -20.64, -20.64, -0.1762, 0.4679, 23.3953, -8.8124, -8.8124
349.26, (219.755,14.589), 348.1805, 100.0, 347.4004988633252, -12.54, -12.54, -0.0999, 0.4899, 24.4964, -4.9927, -4.9927
349.56, (221.722,14.226), 348.4805, 100.0, 348.4804805781928, -10.44, -10.44, -0.0906, 0.4917, 24.5861, -4.5301, -4.5301
356.4, (223.502,13.968), 355.3205, 100.0, 354.24045999260176, -5.7, -5.7, -0.0408, 0.4983, 24.9166, -2.0398, -2.0398
353.7, (225.499,13.882), 352.6204, 100.0, 353.28044122676306, -4.62, -4.62, -0.0491, 0.4976, 24.879, -2.4569, -2.4569
355.2, (227.479,13.607), 354.1204, 100.0, 353.7604279524825, -6.36, -6.36, -0.045, 0.498, 24.8987, -2.2484, -2.2484
359.94, (229.278,13.573), 358.8604, 100.0, 358.86041468614474, -0.06, -0.06, -0.0005, 0.5, 25, -0.0262, -0.0262
351.84, (231.274,13.467), 350.7604, 100.0, 351.4204011111167, -6.48, -6.48, -0.0653, 0.4957, 24.7861, -3.2632, -3.2632
349.8, (233.243,13.121), 348.7204, 100.0, 348.72038972027417, -10.2, -10.2, -0.0885, 0.4921, 24.6049, -4.4271, -4.4271
341.22, (234.991,12.697), 340.1404, 100.0, 341.22037661441203, -16.56, -16.56, -0.152, 0.4763, 23.8165, -7.6008, -7.6008
335.16, (236.856,11.978), 334.0804, 100.0, 334.7403653743683, -23.1, -23.1, -0.2048, 0.4561, 22.8066, -10.2401, -10.2401
329.22, (238.604,11.008), 328.1404, 100.0, 328.14035216972417, -30.78, -30.78, -0.2559, 0.4296, 21.4785, -12.7936, -12.7936
336.12, (240.187,10.154), 335.0403, 100.0, 334.4403380187871, -25.5, -25.5, -0.2072, 0.4551, 22.7526, -10.3594, -10.3594
339.66, (241.68,9.58), 338.5803, 100.0, 338.5803219348092, -20.34, -20.34, -0.1738, 0.4688, 23.4412, -8.6898, -8.6898
339.66, (243.555,8.885), 338.5803, 100.0, 338.5803050789796, -20.34, -20.34, -0.1738, 0.4688, 23.4412, -8.6898, -8.6898
339.66, (245.431,8.19), 338.5803, 100.0, 338.5802891610382, -20.34, -20.34, -0.1738, 0.4688, 23.4412, -8.6898, -8.6898
339.66, (247.306,7.495), 338.5803, 100.0, 338.58026923709525, -20.34, -20.34, -0.1738, 0.4688, 23.4412, -8.6898, -8.6898
339.66, (248.994,6.869), 338.5803, 100.0, 338.58025493134863, -20.34, -20.34, -0.1738, 0.4688, 23.4412, -8.6898, -8.6898
339.66, (250.869,6.174), 338.5802, 100.0, 338.5802384062967, -20.34, -20.34, -0.1738, 0.4688, 23.4412, -8.6898, -8.6898
349.86, (252.797,5.65), 348.7802, 100.0, 348.4802243858434, -11.64, -11.64, -0.0906, 0.4917, 24.5861, -4.5301, -4.5301
340.32, (254.728,5.142), 339.2402, 100.0, 339.60020621479674, -18.3, -18.3, -0.1654, 0.4718, 23.5921, -8.2711, -8.2711
343.86, (256.424,4.541), 342.7802, 100.0, 342.0001923018015, -17.94, -17.94, -0.1455, 0.4784, 23.9178, -7.2759, -7.2759
353.22, (258.383,4.146), 352.1402, 100.0, 351.78017483632686, -8.1, -8.1, -0.0621, 0.4961, 24.8061, -3.1074, -3.1074
359.7, (260.38,4.069), 358.6202, 100.0, 358.620158373227, -0.3, -0.3, -0.0026, 0.5, 24.9997, -0.1309, -0.1309
359.34, (262.18,4.06), 358.2601, 100.0, 358.6201472457407, -0.3, -0.3, -0.0026, 0.5, 24.9997, -0.1309, -0.1309
349.38, (264.166,3.854), 348.3001, 100.0, 348.3001300517065, -9.54, -9.54, -0.0921, 0.4914, 24.5718, -4.6074, -4.6074
342.3, (265.918,3.447), 341.2201, 100.0, 341.94011169625145, -15.9, -15.9, -0.146, 0.4782, 23.9102, -7.3009, -7.3009
339.3, (267.795,2.756), 338.2201, 100.0, 338.2200967741831, -20.7, -20.7, -0.1767, 0.4677, 23.3861, -8.8369, -8.8369
339.66, (269.479,2.12), 338.5801, 100.0, 338.22007653007546, -20.7, -20.7, -0.1767, 0.4677, 23.3861, -8.8369, -8.8369
349.38, (271.404,1.589), 348.3001, 100.0, 348.0000567476201, -11.88, -11.88, -0.0947, 0.4909, 24.5473, -4.736, -4.736
349.38, (273.37,1.22), 348.3, 100.0, 348.3000460205318, -10.62, -10.62, -0.0921, 0.4914, 24.5718, -4.6074, -4.6074
359.4, (275.158,1.029), 358.32, 100.0, 357.060029666927, -2.94, -2.94, -0.0162, 0.4997, 24.9868, -0.8114, -0.8114
352.86, (277.155,0.944), 351.78, 100.0, 352.56001250484377, -5.28, -5.28, -0.0554, 0.4969, 24.8461, -2.7694, -2.7694
349.32, (279.124,0.6), 348.24, 100.0, 348.2399990487438, -10.68, -10.68, -0.0927, 0.4913, 24.5669, -4.6331, -4.6331
345, (281.083,0.198), 343.92, 100.0, 344.27998172226813, -13.5, -13.5, -0.1264, 0.4838, 24.1883, -6.3186, -6.3186
339.24, (282.783,-0.39), 338.16, 100.0, 338.15996748906576, -20.76, -20.76, -0.1772, 0.4675, 23.3768, -8.8614, -8.8614
344.52, (284.669,-1.053), 343.44, 100.0, 343.0199545312828, -16.86, -16.86, -0.137, 0.4809, 24.0435, -6.849, -6.849
349.26, (286.627,-1.46), 348.1799, 100.0, 348.1799336847032, -10.74, -10.74, -0.0932, 0.4912, 24.5621, -4.6588, -4.6588
349.26, (288.395,-1.796), 348.1799, 100.0, 348.17992006691406, -10.74, -10.74, -0.0932, 0.4912, 24.5621, -4.6588, -4.6588
349.26, (290.36,-2.168), 348.1799, 100.0, 348.17990289795273, -10.74, -10.74, -0.0932, 0.4912, 24.5621, -4.6588, -4.6588
349.26, (292.325,-2.541), 348.1799, 100.0, 348.17988670187236, -10.74, -10.74, -0.0932, 0.4912, 24.5621, -4.6588, -4.6588
340.32, (294.066,-2.991), 339.2399, 100.0, 340.2598708781333, -17.52, -17.52, -0.16, 0.4737, 23.6858, -7.9988, -7.9988
339.18, (295.937,-3.698), 338.0999, 100.0, 338.0998538264124, -20.82, -20.82, -0.1777, 0.4674, 23.3675, -8.8858, -8.8858
339.18, (297.619,-4.338), 338.0998, 100.0, 338.0998354572784, -20.82, -20.82, -0.1777, 0.4674, 23.3675, -8.8858, -8.8858
339.54, (299.488,-5.049), 338.4598, 100.0, 338.0998178541717, -20.82, -20.82, -0.1777, 0.4674, 23.3675, -8.8858, -8.8858
349.44, (301.415,-5.578), 348.3598, 100.0, 347.99980162839137, -11.94, -11.94, -0.0947, 0.4909, 24.5473, -4.736, -4.736
355.8, (303.39,-5.881), 354.7198, 100.0, 353.9397828889619, -6.06, -6.06, -0.0434, 0.4981, 24.9056, -2.1702, -2.1702
5.22, (305.388,-5.866), 4.1398, 100.0, 3.7197670878149336, 3.72, 3.72, 0.0418, 0.4982, 24.9123, 2.0919, 2.0919
9.84, (307.166,-5.59), 8.7598, 100.0, 8.75975532408508, 9.84, 9.84, 0.0854, 0.4926, 24.6322, 4.2724, 4.2724
9.84, (309.137,-5.248), 8.7597, 100.0, 8.759738230812077, 9.84, 9.84, 0.0854, 0.4926, 24.6322, 4.2724, 4.2724
9.84, (311.107,-4.906), 8.7597, 100.0, 8.759723185337506, 9.84, 9.84, 0.0854, 0.4926, 24.6322, 4.2724, 4.2724
9.84, (313.078,-4.564), 8.7597, 100.0, 8.759707930648645, 9.84, 9.84, 0.0854, 0.4926, 24.6322, 4.2724, 4.2724
9.84, (314.851,-4.257), 8.7597, 100.0, 8.759693541441878, 9.84, 9.84, 0.0854, 0.4926, 24.6322, 4.2724, 4.2724
9.84, (316.822,-3.915), 8.7597, 100.0, 8.759675260830644, 9.84, 9.84, 0.0854, 0.4926, 24.6322, 4.2724, 4.2724
16.68, (318.774,-3.486), 15.5997, 100.0, 15.599651062428476, 15.54, 15.54, 0.1435, 0.479, 23.9481, 7.1757, 7.1757
22.38, (320.467,-2.875), 21.2996, 100.0, 20.579639315468793, 20.64, 20.64, 0.1845, 0.4647, 23.2348, 9.2275, 9.2275
28.2, (322.251,-1.976), 27.1196, 100.0, 27.839620717845488, 29.94, 29.94, 0.2418, 0.4376, 21.8824, 12.0897, 12.0897
19.86, (324.086,-1.187), 18.7796, 100.0, 18.779605110283633, 19.86, 19.86, 0.1699, 0.4703, 23.5131, 8.4931, 8.4931
28.08, (325.918,-0.389), 26.9996, 100.0, 26.999589297395293, 27, 27, 0.2354, 0.4411, 22.0573, 11.7676, 11.7676
22.5, (327.52,0.427), 21.4196, 100.0, 22.13957636498724, 24.06, 24.06, 0.1971, 0.4595, 22.9749, 9.8566, 9.8566
12.9, (329.421,1.04), 11.8196, 100.0, 12.479561848562904, 14.58, 14.58, 0.1172, 0.4861, 24.3031, 5.8616, 5.8616
9.6, (331.39,1.393), 8.5195, 100.0, 8.519546988736344, 9.6, 9.6, 0.0834, 0.493, 24.6499, 4.1692, 4.1692
9.6, (333.362,1.727), 8.5195, 100.0, 8.51952638565476, 9.6, 9.6, 0.0834, 0.493, 24.6499, 4.1692, 4.1692
9.6, (335.137,2.027), 8.5195, 100.0, 8.519516922917916, 9.6, 9.6, 0.0834, 0.493, 24.6499, 4.1692, 4.1692
2.7, (337.119,2.278), 1.6195, 100.0, 1.9195017256024987, 4.14, 4.14, 0.0262, 0.4993, 24.9657, 1.3084, 1.3084
353.46, (339.116,2.216), 353.1005, 100.0, 353.46048353780486, -5.1, -5.1, -0.0538, 0.4971, 24.8547, -2.6913, -2.6913
350.34, (340.893,1.928), 349.9805, 100.0, 349.98047143343496, -9.66, -9.66, -0.0839, 0.4929, 24.6455, -4.195, -4.195
348.24, (342.863,1.584), 347.8805, 100.0, 348.24045453699864, -10.44, -10.44, -0.0988, 0.4901, 24.5068, -4.9414, -4.9414
340.02, (344.775,1.005), 339.6604, 100.0, 339.6604350477855, -19.98, -19.98, -0.1708, 0.4699, 23.4953, -8.5423, -8.5423
330.36, (346.413,0.263), 330.0004, 100.0, 331.02041898386454, -27.6, -27.6, -0.2395, 0.4389, 21.9454, -11.975, -11.975
330, (348.146,-0.736), 329.6404, 100.0, 329.6404030699513, -30, -30, -0.25, 0.433, 21.6506, -12.5, -12.5
323.04, (349.837,-1.801), 322.6804, 100.0, 323.40038632331897, -35.22, -35.22, -0.2956, 0.4033, 20.1637, -14.7792, -14.7792
319.86, (351.376,-3.077), 319.5004, 100.0, 319.50036848229587, -40.14, -40.14, -0.3223, 0.3822, 19.1118, -16.1164, -16.1164
320.88, (352.752,-4.237), 320.5204, 100.0, 319.50035354187304, -40.14, -40.14, -0.3223, 0.3822, 19.1118, -16.1164, -16.1164
330.12, (354.399,-5.368), 329.7603, 100.0, 329.7603392494264, -30.9, -30.9, -0.2491, 0.4335, 21.6768, -12.4546, -12.4546
330.12, (356.133,-6.365), 329.7603, 100.0, 329.7603216518536, -29.88, -29.88, -0.2491, 0.4335, 21.6768, -12.4546, -12.4546
330.12, (357.867,-7.361), 329.7603, 100.0, 329.7603096896028, -29.88, -29.88, -0.2491, 0.4335, 21.6768, -12.4546, -12.4546
330.12, (359.428,-8.258), 329.7603, 100.0, 329.76029511805547, -29.88, -29.88, -0.2491, 0.4335, 21.6768, -12.4546, -12.4546
338.4, (361.213,-9.154), 338.0403, 100.0, 337.3802743222732, -23.34, -23.34, -0.1894, 0.4627, 23.1369, -9.4703, -9.4703
333.66, (362.883,-9.823), 333.3003, 100.0, 334.3802591926004, -24.18, -24.18, -0.2134, 0.4522, 22.6095, -10.6682, -10.6682
331.62, (364.633,-10.79), 331.2602, 100.0, 330.54024666056796, -29.76, -29.76, -0.2432, 0.4369, 21.8443, -12.1584, -12.1584
340.5, (366.464,-11.59), 340.1402, 100.0, 340.1402287408908, -19.86, -19.86, -0.1669, 0.4713, 23.566, -8.3452, -8.3452
340.5, (368.349,-12.257), 340.1402, 100.0, 340.1402106002261, -19.5, -19.5, -0.1669, 0.4713, 23.566, -8.3452, -8.3452
335.22, (370.031,-12.896), 334.8602, 100.0, 335.8201962602, -23.1, -23.1, -0.2019, 0.4574, 22.8705, -10.0966, -10.0966
330.24, (371.79,-13.846), 329.8802, 100.0, 329.88017697017415, -29.76, -29.76, -0.2482, 0.4341, 21.7028, -12.4092, -12.4092
330.24, (373.526,-14.839), 329.8802, 100.0, 329.8801578156885, -29.76, -29.76, -0.2482, 0.4341, 21.7028, -12.4092, -12.4092
339.78, (375.154,-15.602), 339.4201, 100.0, 338.700144882588, -22.02, -22.02, -0.1787, 0.467, 23.3489, -8.9348, -8.9348
349.2, (377.076,-16.147), 348.8401, 100.0, 348.4801299502323, -12.3, -12.3, -0.0968, 0.4905, 24.5273, -4.8387, -4.8387
347.46, (379.045,-16.495), 347.1001, 100.0, 347.10011107043573, -11.52, -11.52, -0.1086, 0.4881, 24.4036, -5.428, -5.428
342.72, (380.764,-17.023), 342.3601, 100.0, 341.4000985856416, -19.32, -19.32, -0.1565, 0.4749, 23.7438, -7.825, -7.825
350.7, (382.714,-17.46), 350.3401, 100.0, 350.3400794471719, -9.3, -9.3, -0.0808, 0.4934, 24.6714, -4.0401, -4.0401
350.7, (384.688,-17.783), 350.3401, 100.0, 350.34005887683156, -9.3, -9.3, -0.0808, 0.4934, 24.6714, -4.0401, -4.0401
350.7, (386.661,-18.106), 350.34, 100.0, 350.34003995789664, -9.3, -9.3, -0.0808, 0.4934, 24.6714, -4.0401, -4.0401
350.7, (388.635,-18.43), 350.34, 100.0, 350.3400234268362, -9.3, -9.3, -0.0808, 0.4934, 24.6714, -4.0401, -4.0401
350.7, (390.411,-18.72), 350.34, 100.0, 350.3400023311599, -9.3, -9.3, -0.0808, 0.4934, 24.6714, -4.0401, -4.0401
350.7, (392.385,-19.044), 350.34, 100.0, 350.3399771668108, -9.3, -9.3, -0.0808, 0.4934, 24.6714, -4.0401, -4.0401
358.8, (394.372,-19.251), 358.44, 100.0, 358.07995685077316, -2.7, -2.7, -0.0136, 0.4998, 24.9907, -0.6806, -0.6806
8.04, (396.168,-19.154), 7.6799, 100.0, 6.959945689492386, 5.88, 5.88, 0.0637, 0.4959, 24.7963, 3.1853, 3.1853
11.22, (398.133,-18.785), 10.8599, 100.0, 10.859922745010417, 11.22, 11.22, 0.0973, 0.4904, 24.5222, 4.8644, 4.8644
20.88, (400.053,-18.236), 20.5199, 100.0, 20.519909507251338, 19.62, 19.62, 0.1782, 0.4672, 23.3582, 8.9103, 8.9103
20.52, (401.731,-17.584), 20.1599, 100.0, 20.879896258668854, 21.24, 21.24, 0.1811, 0.466, 23.3018, 9.0569, 9.0569
11.04, (403.653,-17.041), 10.6799, 100.0, 10.679886699518917, 12.12, 12.12, 0.0957, 0.4907, 24.5373, 4.7874, 4.7874
20.1, (405.581,-16.519), 19.7399, 100.0, 19.379870858177107, 18.78, 18.78, 0.1689, 0.4706, 23.5309, 8.4438, 8.4438
21.24, (407.446,-15.795), 20.8799, 100.0, 20.879857406193175, 21.24, 21.24, 0.1811, 0.466, 23.3018, 9.0569, 9.0569
13.86, (409.15,-15.222), 13.4998, 100.0, 14.219834512858148, 15.78, 15.78, 0.1259, 0.4839, 24.1949, 6.2933, 6.2933
11.1, (411.11,-14.822), 10.7398, 100.0, 10.739818920828258, 11.1, 11.1, 0.0963, 0.4906, 24.5323, 4.813, 4.813
8.7, (413.075,-14.452), 8.3398, 100.0, 8.33980437015032, 9.72, 9.72, 0.0756, 0.4942, 24.7123, 3.7815, 3.7815
0.9, (414.869,-14.336), 0.5398, 100.0, 0.5397882752292859, 0.9, 0.9, 0.0079, 0.4999, 24.9969, 0.3927, 0.3927
0.9, (416.869,-14.305), 0.5398, 100.0, 0.5397748508770771, 0.9, 0.9, 0.0079, 0.4999, 24.9969, 0.3927, 0.3927
0.9, (418.869,-14.273), 0.5398, 100.0, 0.5397644425800947, 0.9, 0.9, 0.0079, 0.4999, 24.9969, 0.3927, 0.3927
355.38, (420.868,-14.299), 355.1402, 100.0, 355.62023417300605, -3.48, -3.48, -0.0361, 0.4987, 24.9348, -1.8048, -1.8048
349.38, (422.647,-14.566), 349.1402, 100.0, 349.5602195247193, -9.48, -9.48, -0.0885, 0.4921, 24.6049, -4.4271, -4.4271
340.44, (424.571,-15.103), 340.2002, 100.0, 340.20019599360626, -19.2, -19.2, -0.1674, 0.4711, 23.5573, -8.3698, -8.3698
340.44, (426.456,-15.773), 340.2002, 100.0, 340.2001789939949, -19.56, -19.56, -0.1674, 0.4711, 23.5573, -8.3698, -8.3698
340.44, (428.341,-16.442), 340.2002, 100.0, 340.2001647070208, -19.56, -19.56, -0.1674, 0.4711, 23.5573, -8.3698, -8.3698
340.44, (430.037,-17.045), 340.2001, 100.0, 340.2001468167133, -19.56, -19.56, -0.1674, 0.4711, 23.5573, -8.3698, -8.3698
349.74, (431.964,-17.569), 349.5001, 100.0, 349.14013056542996, -11.64, -11.64, -0.0921, 0.4914, 24.5718, -4.6074, -4.6074
350.46, (433.936,-17.9), 350.2201, 100.0, 350.2201199705881, -9.54, -9.54, -0.0829, 0.4931, 24.6543, -4.1434, -4.1434
353.16, (435.911,-18.217), 352.9201, 100.0, 352.56010280347977, -7.92, -7.92, -0.0627, 0.4961, 24.8029, -3.1333, -3.1333
0.54, (437.708,-18.284), 0.3001, 100.0, 0.3000863934772299, 0.54, 0.54, 0.0047, 0.5, 24.9989, 0.2356, 0.2356
0.54, (439.708,-18.265), 0.3001, 100.0, 0.30006951549838834, 0.54, 0.54, 0.0047, 0.5, 24.9989, 0.2356, 0.2356
358.44, (441.708,-18.255), 357.9599, 100.0, 358.37993657373136, -0.12, -0.12, -0.0099, 0.4999, 24.9951, -0.4974, -0.4974
350.76, (443.496,-18.451), 350.2799, 100.0, 350.2799222691871, -9.24, -9.24, -0.0803, 0.4935, 24.6756, -4.0143, -4.0143
350.76, (445.47,-18.772), 350.2799, 100.0, 350.2799052520108, -9.24, -9.24, -0.0803, 0.4935, 24.6756, -4.0143, -4.0143
350.76, (447.444,-19.093), 350.2799, 100.0, 350.27988914071454, -9.24, -9.24, -0.0803, 0.4935, 24.6756, -4.0143, -4.0143
350.76, (449.221,-19.382), 350.2799, 100.0, 350.27987397058695, -9.24, -9.24, -0.0803, 0.4935, 24.6756, -4.0143, -4.0143
350.76, (451.195,-19.703), 350.2799, 100.0, 350.2798550034383, -9.24, -9.24, -0.0803, 0.4935, 24.6756, -4.0143, -4.0143
358.56, (453.181,-19.915), 358.0798, 100.0, 357.7198343283831, -2.58, -2.58, -0.0157, 0.4998, 24.9877, -0.7853, -0.7853
0.96, (454.981,-19.892), 0.4798, 100.0, 0.4798193223226006, 0.96, 0.96, 0.0084, 0.4999, 24.9965, 0.4189, 0.4189
0.96, (456.981,-19.858), 0.4798, 100.0, 0.4798070056897338, 0.96, 0.96, 0.0084, 0.4999, 24.9965, 0.4189, 0.4189
7.92, (458.975,-19.73), 7.4398, 100.0, 7.43978860279639, 6.78, 6.78, 0.0689, 0.4952, 24.7615, 3.4448, 3.4448
15.84, (460.737,-19.366), 15.3598, 100.0, 14.339771059513284, 13.74, 13.74, 0.1279, 0.4834, 24.1684, 6.3946, 6.3946
21.3, (462.62,-18.698), 20.8197, 100.0, 20.819744937421287, 21.3, 21.3, 0.1816, 0.4658, 23.2923, 9.0813, 9.0813
15.18, (464.507,-18.039), 15.0597, 100.0, 15.359726923492751, 16.2, 16.2, 0.1335, 0.4819, 24.0931, 6.6725, 6.6725
10.8, (466.466,-17.636), 10.6797, 100.0, 10.67970923129559, 10.8, 10.8, 0.0937, 0.4911, 24.5572, 4.6845, 4.6845
10.8, (468.234,-17.299), 10.6797, 100.0, 10.679696282792692, 10.8, 10.8, 0.0937, 0.4911, 24.5572, 4.6845, 4.6845
12.6, (470.198,-16.921), 12.4797, 100.0, 11.699675380854014, 10.8, 10.8, 0.1024, 0.4894, 24.4699, 5.1209, 5.1209
20.82, (472.105,-16.324), 20.6997, 100.0, 20.699657662078735, 20.82, 20.82, 0.1777, 0.4674, 23.3675, 8.8858, 8.8858
13.8, (474.003,-15.699), 13.6796, 100.0, 14.0396404356875, 15.18, 15.18, 0.1193, 0.4856, 24.2784, 5.9633, 5.9633
10.68, (475.965,-15.315), 10.5596, 100.0, 10.559623191017906, 10.68, 10.68, 0.0927, 0.4913, 24.5669, 4.6331, 4.6331
19.02, (477.709,-14.875), 18.8996, 100.0, 18.179610413687822, 17.16, 17.16, 0.157, 0.4747, 23.7356, 7.8498, 7.8498
20.7, (479.582,-14.173), 20.5796, 100.0, 20.579595884240266, 20.7, 20.7, 0.1767, 0.4677, 23.3861, 8.8369, 8.8369
11.64, (481.494,-13.596), 11.5196, 100.0, 12.23958257062634, 13.38, 13.38, 0.107, 0.4884, 24.4205, 5.3513, 5.3513
10.56, (483.46,-13.227), 10.4396, 100.0, 10.439563161931638, 10.56, 10.56, 0.0916, 0.4915, 24.5766, 4.5816, 4.5816
10.56, (485.229,-12.897), 10.4395, 100.0, 10.439549287477933, 10.56, 10.56, 0.0916, 0.4915, 24.5766, 4.5816, 4.5816
11.58, (487.195,-12.528), 11.4595, 100.0, 11.09953495769779, 10.56, 10.56, 0.0973, 0.4904, 24.5222, 4.8644, 4.8644
20.82, (489.109,-11.959), 20.6995, 100.0, 20.699512767489157, 20.1, 20.1, 0.1777, 0.4674, 23.3675, 8.8858, 8.8858
15.54, (490.996,-11.297), 15.4195, 100.0, 15.779504751357035, 16.56, 16.56, 0.137, 0.4809, 24.0435, 6.849, 6.849
10.56, (492.954,-10.894), 10.4395, 100.0, 10.439485879085064, 10.56, 10.56, 0.0916, 0.4915, 24.5766, 4.5816, 4.5816
10.56, (494.723,-10.564), 10.4395, 100.0, 10.43947432349523, 10.56, 10.56, 0.0916, 0.4915, 24.5766, 4.5816, 4.5816
4.8, (496.698,-10.252), 4.6795, 100.0, 5.339454527766308, 6.24, 6.24, 0.0476, 0.4977, 24.8866, 2.3788, 2.3788
2.7, (498.697,-10.195), 2.5794, 100.0, 2.2794386127539488, 1.44, 1.44, 0.0209, 0.4996, 24.9781, 1.0469, 1.0469
10.56, (500.677,-9.928), 10.4394, 100.0, 10.439423784857194, 10.56, 10.56, 0.0916, 0.4915, 24.5766, 4.5816, 4.5816
20.64, (502.409,-9.446), 20.5194, 100.0, 19.43940742947778, 18.54, 18.54, 0.1674, 0.4711, 23.5573, 8.3698, 8.3698
11.22, (504.324,-8.878), 11.0994, 100.0, 11.819386090143722, 12.96, 12.96, 0.1034, 0.4892, 24.4591, 5.1722, 5.1722
10.62, (506.29,-8.509), 10.4994, 100.0, 10.499373726361595, 10.62, 10.62, 0.0921, 0.4914, 24.5718, 4.6074, 4.6074
3.54, (508.269,-8.233), 3.4194, 100.0, 3.419359332482419, 4.62, 4.62, 0.0309, 0.499, 24.9523, 1.5436, 1.5436
357.66, (510.068,-8.22), 357.7806, 100.0, 358.440649570013, -0.6, -0.6, -0.0147, 0.4998, 24.9893, -0.7329, -0.7329
349.74, (512.051,-8.466), 349.8606, 100.0, 349.8606313622079, -10.26, -10.26, -0.0891, 0.492, 24.6002, -4.4529, -4.4529
348.6, (514.019,-8.823), 348.7206, 100.0, 349.8606102258688, -10.26, -10.26, -0.0891, 0.492, 24.6002, -4.4529, -4.4529
339.72, (515.938,-9.377), 339.8406, 100.0, 339.8405944816577, -19.92, -19.92, -0.1733, 0.469, 23.4502, -8.6652, -8.6652
344.52, (517.828,-10.029), 344.6406, 100.0, 344.2205772704544, -16.62, -16.62, -0.137, 0.4809, 24.0435, -6.849, -6.849
353.88, (519.594,-10.368), 354.0006, 100.0, 352.9205595706013, -8.28, -8.28, -0.0627, 0.4961, 24.8029, -3.1333, -3.1333
357.54, (521.591,-10.449), 358.1395, 100.0, 358.859451416475, -1.02, -1.02, -0.0152, 0.4998, 24.9885, -0.7591, -0.7591
348.06, (523.572,-10.709), 349.0794, 100.0, 349.0794360631203, -10.8, -10.8, -0.1034, 0.4892, 24.4591, -5.1722, -5.1722
338.82, (525.291,-11.233), 339.8394, 100.0, 340.13942293330524, -20.1, -20.1, -0.1782, 0.4672, 23.3582, -8.9103, -8.9103
328.8, (527.085,-12.113), 329.8194, 100.0, 330.1794069570545, -29.82, -29.82, -0.2563, 0.4293, 21.4651, -12.8161, -12.8161
319.26, (528.703,-13.284), 320.2794, 100.0, 320.6393869324033, -39.3, -39.3, -0.3239, 0.3809, 19.0441, -16.1964, -16.1964
309.78, (530.104,-14.707), 310.7994, 100.0, 311.15937178055225, -49.14, -49.14, -0.3822, 0.3223, 16.1164, -19.1118, -19.1118
316.68, (531.301,-16.05), 317.6994, 100.0, 316.5593543557665, -45.48, -45.48, -0.3502, 0.3569, 17.8435, -17.5103, -17.5103
311.1, (532.731,-17.445), 312.1193, 100.0, 312.83933355113953, -47.22, -47.22, -0.3726, 0.3334, 16.6698, -18.6311, -18.6311
301.68, (533.924,-19.049), 302.6993, 100.0, 303.3593153051359, -56.52, -56.52, -0.4224, 0.2675, 13.3736, -21.1222, -21.1222
295.44, (534.871,-20.809), 296.4593, 100.0, 296.45929915431486, -63.42, -63.42, -0.4515, 0.2148, 10.7391, -22.5759, -22.5759
287.82, (535.505,-22.492), 288.8393, 100.0, 288.8392834265708, -72.18, -72.18, -0.476, 0.153, 7.6507, -23.8006, -23.8006
287.82, (536.117,-24.396), 288.8393, 100.0, 288.83926687570045, -72.18, -72.18, -0.476, 0.153, 7.6507, -23.8006, -23.8006
291.06, (536.745,-26.295), 292.0793, 100.0, 291.2992523925282, -70.44, -70.44, -0.469, 0.1733, 8.6652, -23.4502, -23.4502
295.56, (537.602,-28.1), 296.5792, 100.0, 297.2992393174962, -62.64, -62.64, -0.4483, 0.2214, 11.069, -22.416, -22.416
287.94, (538.315,-29.967), 288.9592, 100.0, 288.95922024305355, -72.06, -72.06, -0.4757, 0.154, 7.7005, -23.7845, -23.7845
287.94, (538.931,-31.869), 288.9592, 100.0, 288.95920096919326, -72.06, -72.06, -0.4757, 0.154, 7.7005, -23.7845, -23.7845
287.94, (539.485,-33.582), 288.9592, 100.0, 288.9591840793771, -72.06, -72.06, -0.4757, 0.154, 7.7005, -23.7845, -23.7845
277.74, (539.936,-35.527), 278.7592, 100.0, 279.41916568173934, -80.52, -80.52, -0.4946, 0.073, 3.6521, -24.7318, -24.7318
277.74, (540.206,-37.509), 278.7591, 100.0, 278.7591452094564, -82.26, -82.26, -0.4954, 0.0673, 3.3669, -24.7722, -24.7722
281.88, (540.511,-39.485), 282.8991, 100.0, 282.8991283625723, -79.14, -79.14, -0.4893, 0.1029, 5.1466, -24.4645, -24.4645
284.4, (541.048,-41.411), 285.4191, 100.0, 285.4191098598401, -74.52, -74.52, -0.4843, 0.1243, 6.2172, -24.2146, -24.2146
277.68, (541.357,-43.183), 278.6991, 100.0, 278.69909288039656, -82.32, -82.32, -0.4955, 0.0668, 3.341, -24.7757, -24.7757
272.04, (541.574,-45.17), 273.0591, 100.0, 273.8390762784455, -86.46, -86.46, -0.4994, 0.0246, 1.23, -24.9697, -24.9697
267.66, (541.526,-47.169), 268.6791, 100.0, 268.67906063990705, -92.34, -92.34, -0.4996, -0.0204, -1.0207, -24.9792, -24.9792
267.66, (541.445,-49.167), 268.679, 100.0, 268.6790404578785, -92.34, -92.34, -0.4996, -0.0204, -1.0207, -24.9792, -24.9792
272.16, (541.399,-50.966), 273.179, 100.0, 272.219026782994, -89.88, -89.88, -0.4999, 0.0105, 0.5236, -24.9945, -24.9945
274.62, (541.592,-52.956), 275.639, 100.0, 275.9990116170921, -83.94, -83.94, -0.4981, 0.0434, 2.1702, -24.9056, -24.9056
265.26, (541.581,-54.954), 266.279, 100.0, 266.63899095092245, -93.36, -93.36, -0.4985, -0.0382, -1.9093, -24.927, -24.927
255.66, (541.275,-56.726), 256.679, 100.0, 257.4589786577119, -102.84, -102.84, -0.4861, -0.1172, -5.8616, -24.3031, -24.3031
246.18, (540.626,-58.615), 247.199, 100.0, 247.91895959525172, -112.8, -112.8, -0.4599, -0.1962, -9.8084, -22.9955, -22.9955
236.7, (539.667,-60.367), 237.7189, 100.0, 237.7189437508933, -122.16, -122.16, -0.4179, -0.2745, -13.7256, -20.8952, -20.8952
226.98, (538.431,-61.935), 227.9989, 100.0, 228.3589299316062, -131.88, -131.88, -0.3677, -0.3388, -16.9412, -18.3847, -18.3847
217.68, (536.954,-63.28), 218.6989, 100.0, 218.69891146825904, -141.18, -141.18, -0.3056, -0.3957, -19.7859, -15.2813, -15.2813
208.26, (535.449,-64.265), 209.6389, 100.0, 210.29889077665558, -150.12, -150.12, -0.2418, -0.4376, -21.8824, -12.0897, -12.0897
205.86, (533.654,-65.147), 207.2389, 100.0, 207.23887436792216, -154.14, -154.14, -0.2181, -0.4499, -22.4966, -10.9043, -10.9043
205.86, (531.854,-66.019), 207.2389, 100.0, 207.23885492174117, -154.14, -154.14, -0.2181, -0.4499, -22.4966, -10.9043, -10.9043
200.88, (530.035,-66.846), 202.2588, 100.0, 202.25884057486664, -158.04, -158.04, -0.1782, -0.4672, -23.3582, -8.9103, -8.9103
194.52, (528.312,-67.365), 195.8988, 100.0, 196.678825661841, -164.4, -164.4, -0.1319, -0.4823, -24.1139, -6.5968, -6.5968
185.4, (526.344,-67.708), 186.7788, 100.0, 186.7788065755129, -173.52, -173.52, -0.0471, -0.4978, -24.889, -2.3527, -2.3527
178.62, (524.349,-67.821), 179.9988, 100.0, 180.71878964765833, -179.52, -179.52, 0.0058, -0.5, -24.9983, 0.288, 0.288
169.56, (522.362,-67.612), 170.9388, 100.0, 170.93876966804794, 170.64, 170.64, 0.0906, -0.4917, -24.5861, 4.5301, 4.5301
165, (520.423,-67.125), 166.3787, 100.0, 166.37874902106887, 165, 165, 0.1294, -0.483, -24.1481, 6.4705, 6.4705
156.54, (518.716,-66.557), 157.9187, 100.0, 158.9987305677679, 158.4, 158.4, 0.1904, -0.4623, -23.117, 9.5187, 9.5187
162.24, (516.868,-65.796), 163.6187, 100.0, 162.7787179120034, 160.68, 160.68, 0.1595, -0.4739, -23.6942, 7.974, 7.974
171.66, (514.922,-65.344), 173.0387, 100.0, 172.6787010753859, 170.22, 170.22, 0.0756, -0.4942, -24.7123, 3.7815, 3.7815
181.02, (512.928,-65.225), 182.3987, 100.0, 182.3986841143961, 180, 180, -0.0089, -0.4999, -24.996, -0.445, -0.445
179.7, (511.131,-65.323), 181.0787, 100.0, 182.0386683895241, -178.26, -178.26, -0.0058, -0.5, -24.9983, -0.288, -0.288
179.76, (509.134,-65.231), 181.1387, 100.0, 180.3586530924931, 178.26, 178.26, 0.0089, -0.4999, -24.996, 0.445, 0.445
189.18, (507.143,-65.388), 190.5586, 100.0, 190.19864327374074, -172.2, -172.2, -0.0767, -0.4941, -24.7044, -3.8333, -3.8333
192.66, (505.195,-65.837), 194.0386, 100.0, 194.0386260643579, -166.26, -166.26, -0.1096, -0.4878, -24.3922, -5.4791, -5.4791
183.3, (503.413,-66.079), 184.6786, 100.0, 185.69861232772084, -174.72, -174.72, -0.0377, -0.4986, -24.929, -1.8832, -1.8832
174.06, (501.416,-66.03), 175.4386, 100.0, 176.15859813049443, 175.08, 175.08, 0.0455, -0.4979, -24.8963, 2.2745, 2.2745
164.46, (499.456,-65.643), 165.8386, 100.0, 166.19858199963295, 165.18, 165.18, 0.1309, -0.4826, -24.1277, 6.5463, 6.5463
154.68, (497.771,-65.015), 156.0586, 100.0, 156.77856830179763, 156.36, 156.36, 0.2081, -0.4546, -22.7309, 10.407, 10.407
145.32, (496.031,-64.034), 146.6986, 100.0, 147.41855119407012, 147.12, 147.12, 0.2793, -0.4147, -20.7357, 13.9653, 13.9653
135.72, (494.482,-62.773), 137.0985, 100.0, 137.7585312061603, 137.4, 137.4, 0.3449, -0.362, -18.0983, 17.2468, 17.2468
126.12, (493.166,-61.27), 127.4985, 100.0, 127.85851480137777, 127.62, 127.62, 0.402, -0.2973, -14.8636, 20.1016, 20.1016
116.82, (492.218,-59.742), 118.1985, 100.0, 119.27850060359235, 119.04, 119.04, 0.4431, -0.2316, -11.5824, 22.1551, 22.1551
107.52, (491.451,-57.897), 108.8985, 100.0, 109.5584851038962, 109.26, 109.26, 0.475, -0.156, -7.8001, 23.752, 23.752
98.22, (491.003,-55.95), 99.5985, 100.0, 99.9584701836836, 99.66, 99.66, 0.4944, -0.0746, -3.7298, 24.7202, 24.7202
97.92, (490.812,-53.96), 99.2985, 100.0, 98.93845813841041, 96.48, 96.48, 0.4957, -0.0658, -3.2891, 24.7827, 24.7827
107.52, (490.42,-52.205), 108.8984, 100.0, 107.93844462595754, 105.24, 105.24, 0.4793, -0.1425, -7.1255, 23.963, 23.963
116.7, (489.676,-50.351), 118.0784, 100.0, 117.358428071313, 114.9, 114.9, 0.4495, -0.219, -10.9514, 22.4737, 22.4737
126, (488.635,-48.646), 127.3784, 100.0, 127.01841095999188, 124.2, 124.2, 0.4063, -0.2913, -14.5673, 20.3174, 20.3174
132.6, (487.327,-47.135), 133.9784, 100.0, 134.33839362520376, 134.04, 134.04, 0.3659, -0.3407, -17.0372, 18.2957, 18.2957
124.2, (486.228,-45.712), 125.5784, 100.0, 125.21837758189243, 124.56, 124.56, 0.4153, -0.2784, -13.9219, 20.7649, 20.7649
134.16, (484.972,-44.159), 135.5384, 100.0, 134.87836081029732, 132.48, 132.48, 0.3627, -0.3442, -17.2089, 18.1344, 18.1344
144, (483.47,-42.843), 145.3783, 100.0, 145.01834575203804, 142.68, 142.68, 0.2964, -0.4027, -20.1327, 14.8214, 14.8214
135.18, (481.937,-41.562), 136.5583, 100.0, 136.918333480538, 136.56, 136.56, 0.3502, -0.3569, -17.8435, 17.5103, 17.5103
142.26, (480.612,-40.347), 143.6383, 100.0, 142.9783206367148, 140.52, 140.52, 0.3106, -0.3918, -19.5923, 15.5287, 15.5287
151.5, (478.941,-39.251), 152.8783, 100.0, 152.87830014221504, 150.12, 150.12, 0.2386, -0.4394, -21.9704, 11.929, 11.929
148.2, (477.349,-38.414), 149.5783, 100.0, 150.23828524428964, 150.06, 150.06, 0.2586, -0.428, -21.3977, 12.9283, 12.9283
149.52, (475.685,-37.305), 150.8983, 100.0, 150.17826784562942, 147.78, 147.78, 0.259, -0.4277, -21.3841, 12.9507, 12.9507
159.12, (473.885,-36.438), 160.4982, 100.0, 159.71824974122546, 157.68, 157.68, 0.1845, -0.4647, -23.2348, 9.2275, 9.2275
168.6, (471.966,-35.883), 169.9782, 100.0, 169.55823252737295, 167.1, 167.1, 0.1024, -0.4894, -24.4699, 5.1209, 5.1209
178.08, (469.981,-35.653), 179.4582, 100.0, 179.0982179882922, 176.46, 176.46, 0.0199, -0.4996, -24.9802, 0.9946, 0.9946
182.04, (468.184,-35.722), 183.4182, 100.0, 184.1382047400053, -176.1, -176.1, -0.0241, -0.4994, -24.971, -1.2038, -1.2038
172.32, (466.188,-35.625), 173.6982, 100.0, 174.41819115373946, 174.12, 174.12, 0.0606, -0.4963, -24.8158, 3.0294, 3.0294
163.14, (464.238,-35.194), 164.5182, 100.0, 164.87817177795012, 164.22, 164.22, 0.142, -0.4794, -23.9705, 7.1004, 7.1004
153.78, (462.388,-34.44), 155.1582, 100.0, 155.15815627409233, 154.08, 154.08, 0.2209, -0.4486, -22.4276, 11.0455, 11.0455
144, (460.854,-33.502), 145.3781, 100.0, 145.7381451855031, 145.44, 145.44, 0.2913, -0.4063, -20.3174, 14.5673, 14.5673
139.5, (459.26,-32.295), 140.8781, 100.0, 141.23812939222523, 140.64, 140.64, 0.3223, -0.3822, -19.1118, 16.1164, 16.1164
133.98, (457.978,-31.033), 135.3581, 100.0, 135.3581206818396, 133.98, 133.98, 0.3598, -0.3472, -17.3602, 17.9896, 17.9896
133.98, (456.589,-29.594), 135.3581, 100.0, 135.35810191529708, 133.98, 133.98, 0.3598, -0.3472, -17.3602, 17.9896, 17.9896
140.88, (455.144,-28.214), 142.2581, 100.0, 141.53808767762374, 139.38, 139.38, 0.3203, -0.3839, -19.1959, 16.0161, 16.0161
145.56, (453.531,-27.031), 146.9381, 100.0, 146.27806915314395, 144.24, 144.24, 0.2875, -0.4091, -20.4537, 14.3751, 14.3751
154.74, (451.791,-26.051), 155.8181, 100.0, 155.81805620640046, 154.38, 154.38, 0.2134, -0.4522, -22.6095, 10.6682, 10.6682
149.22, (450.183,-25.244), 150.298, 100.0, 151.3780404969412, 151.14, 151.14, 0.2477, -0.4343, -21.7158, 12.3865, 12.3865
144.42, (448.529,-24.12), 145.498, 100.0, 145.4980229429068, 144.42, 144.42, 0.2909, -0.4067, -20.3326, 14.546, 14.546
144.42, (446.903,-22.957), 145.498, 100.0, 145.49800789747812, 144.42, 144.42, 0.2909, -0.4067, -20.3326, 14.546, 14.546
135.66, (445.365,-21.682), 136.738, 100.0, 136.7379883064401, 136.74, 136.74, 0.3495, -0.3576, -17.8801, 17.4729, 17.4729
142.38, (443.883,-20.343), 143.458, 100.0, 143.45796964475423, 141.36, 141.36, 0.3052, -0.396, -19.8019, 15.2605, 15.2605
149.82, (442.395,-19.33), 150.898, 100.0, 150.29795822564057, 148.14, 148.14, 0.2559, -0.4296, -21.4785, 12.7936, 12.7936
154.8, (440.607,-18.437), 155.8779, 100.0, 155.87794068525878, 154.8, 154.8, 0.2129, -0.4524, -22.6207, 10.6445, 10.6445
154.8, (438.797,-17.585), 155.8779, 100.0, 155.87792493909294, 154.8, 154.8, 0.2129, -0.4524, -22.6207, 10.6445, 10.6445
154.8, (437.169,-16.819), 155.8779, 100.0, 155.87790604977107, 154.8, 154.8, 0.2129, -0.4524, -22.6207, 10.6445, 10.6445
150.9, (435.369,-15.948), 151.9779, 100.0, 152.6978894498494, 152.7, 152.7, 0.2377, -0.4399, -21.9954, 11.8829, 11.8829
147.48, (433.692,-14.86), 148.5579, 100.0, 148.19787320883515, 146.04, 146.04, 0.2714, -0.4199, -20.9952, 13.572, 13.572
156.9, (431.917,-13.943), 157.9779, 100.0, 157.97785281321572, 155.94, 155.94, 0.1962, -0.4599, -22.9955, 9.8084, 9.8084
165.24, (430.207,-13.388), 166.3178, 100.0, 166.31783840831014, 165.24, 165.24, 0.1274, -0.4835, -24.175, 6.3693, 6.3693
169.44, (428.266,-12.905), 170.5178, 100.0, 169.8578227738043, 167.7, 167.7, 0.0973, -0.4904, -24.5222, 4.8644, 4.8644
175.5, (426.28,-12.682), 176.5778, 100.0, 176.57780928533478, 175.5, 175.5, 0.0392, -0.4985, -24.9229, 1.9615, 1.9615
168.66, (424.296,-12.444), 169.7378, 100.0, 170.0977897259566, 170.1, 170.1, 0.0952, -0.4908, -24.5423, 4.7617, 4.7617
165.42, (422.549,-12.009), 166.4978, 100.0, 166.49777655258873, 165.42, 165.42, 0.1259, -0.4839, -24.1949, 6.2933, 6.2933
174.18, (420.589,-11.627), 175.2578, 100.0, 174.53776312152922, 172.38, 172.38, 0.0569, -0.4967, -24.8373, 2.8474, 2.8474
174.9, (418.595,-11.469), 175.9777, 100.0, 176.27774956114797, 175.62, 175.62, 0.0418, -0.4982, -24.9123, 2.0919, 2.0919
165.6, (416.63,-11.112), 166.6777, 100.0, 166.6777253559793, 166.02, 166.02, 0.1243, -0.4843, -24.2146, 6.2172, 6.2172
175.62, (414.855,-10.823), 176.6977, 100.0, 175.91770729339373, 173.82, 173.82, 0.045, -0.498, -24.8987, 2.2484, 2.2484
185.34, (412.858,-10.822), 186.4177, 100.0, 185.6976902536292, -176.4, -176.4, -0.0403, -0.4984, -24.9188, -2.0137, -2.0137
176.7, (410.861,-10.881), 177.7777, 100.0, 178.13767327323848, 178.14, 178.14, 0.0256, -0.4993, -24.9671, 1.2823, 1.2823
183.78, (408.863,-10.849), 184.8577, 100.0, 184.43766138326754, -177.72, -177.72, -0.0293, -0.4991, -24.957, -1.4652, -1.4652
185.58, (407.071,-11.02), 186.6576, 100.0, 186.65764845579324, -174.42, -174.42, -0.0486, -0.4976, -24.8815, -2.4309, -2.4309
185.58, (405.081,-11.214), 186.6576, 100.0, 186.6576315057931, -174.42, -174.42, -0.0486, -0.4976, -24.8815, -2.4309, -2.4309
185.58, (403.09,-11.409), 186.6576, 100.0, 186.65761273321624, -174.42, -174.42, -0.0486, -0.4976, -24.8815, -2.4309, -2.4309
185.58, (401.1,-11.603), 186.6576, 100.0, 186.65759344025733, -174.42, -174.42, -0.0486, -0.4976, -24.8815, -2.4309, -2.4309
181.98, (399.107,-11.771), 183.0576, 100.0, 183.05757866692474, -176.88, -176.88, -0.0173, -0.4997, -24.9851, -0.8638, -0.8638
177.66, (397.31,-11.695), 178.7376, 100.0, 177.71756004221987, 175.56, 175.56, 0.0293, -0.4991, -24.957, 1.4652, 1.4652
185.52, (395.314,-11.769), 186.5975, 100.0, 186.59754661806676, -174.48, -174.48, -0.0481, -0.4977, -24.8841, -2.4048, -2.4048
193.2, (393.336,-12.058), 194.2775, 100.0, 193.61752599992786, -168.48, -168.48, -0.1086, -0.4881, -24.4036, -5.428, -5.428
202.5, (391.435,-12.671), 203.5775, 100.0, 203.57751058655083, -158.58, -158.58, -0.1913, -0.4619, -23.097, -9.5671, -9.5671
211.56, (389.659,-13.586), 212.6375, 100.0, 212.63749639952366, -149.7, -149.7, -0.2617, -0.426, -21.3023, -13.0848, -13.0848
211.38, (388.169,-14.595), 212.4575, 100.0, 213.17748296888598, -147.18, -147.18, -0.2657, -0.4236, -21.178, -13.285, -13.285
205.74, (386.392,-15.511), 206.8175, 100.0, 206.81746578971854, -154.26, -154.26, -0.2171, -0.4504, -22.5194, -10.8572, -10.8572
205.74, (384.591,-16.38), 206.8175, 100.0, 206.81745401792932, -154.26, -154.26, -0.2171, -0.4504, -22.5194, -10.8572, -10.8572
196.14, (382.727,-17.099), 197.2174, 100.0, 197.57743571670855, -162.42, -162.42, -0.142, -0.4794, -23.9705, -7.1004, -7.1004
195.48, (380.8,-17.633), 196.5574, 100.0, 196.557411057291, -164.52, -164.52, -0.1335, -0.4819, -24.0931, -6.6725, -6.6725
186.54, (379.037,-17.985), 187.6174, 100.0, 188.33739337616518, -171.66, -171.66, -0.0632, -0.496, -24.7996, -3.1593, -3.1593
185.34, (377.046,-18.174), 186.4174, 100.0, 186.4173712028473, -174.66, -174.66, -0.0465, -0.4978, -24.8915, -2.3266, -2.3266
192.24, (375.065,-18.443), 193.3174, 100.0, 192.9573571128647, -169.26, -169.26, -0.1029, -0.4893, -24.4645, -5.1466, -5.1466
199.92, (373.145,-18.997), 200.9973, 100.0, 200.69733977080216, -161.46, -161.46, -0.1679, -0.471, -23.5485, -8.3945, -8.3945
201.3, (371.492,-19.709), 202.3773, 100.0, 203.45732589334648, -156.6, -156.6, -0.1904, -0.4623, -23.117, -9.5187, -9.5187
195.36, (369.585,-20.307), 196.4373, 100.0, 196.43731246775954, -164.64, -164.64, -0.1324, -0.4821, -24.107, -6.6221, -6.6221
195.36, (367.657,-20.837), 196.4373, 100.0, 196.43729146146268, -164.64, -164.64, -0.1324, -0.4821, -24.107, -6.6221, -6.6221
191.46, (365.721,-21.336), 192.5373, 100.0, 192.53727369209426, -167.4, -167.4, -0.0993, -0.49, -24.5016, -4.9671, -4.9671
181.98, (363.934,-21.544), 183.0573, 100.0, 184.13725465541052, -175.8, -175.8, -0.0267, -0.4993, -24.9644, -1.3345, -1.3345
174.66, (361.938,-21.459), 175.7372, 100.0, 175.7372343562121, 174.66, 174.66, 0.0465, -0.4978, -24.8915, 2.3266, 2.3266
171.66, (359.949,-21.255), 172.7372, 100.0, 173.15721965335487, 172.86, 172.86, 0.0689, -0.4952, -24.7615, 3.4448, 3.4448
164.64, (358.003,-20.799), 165.7172, 100.0, 165.7172002438042, 164.64, 164.64, 0.1324, -0.4821, -24.107, 6.6221, 6.6221
164.64, (356.267,-20.323), 165.7172, 100.0, 165.71718824320195, 164.64, 164.64, 0.1324, -0.4821, -24.107, 6.6221, 6.6221
162.9, (354.341,-19.786), 163.9772, 100.0, 163.9771682674672, 164.28, 164.28, 0.147, -0.4779, -23.8948, 7.351, 7.351
154.32, (352.675,-19.109), 155.3972, 100.0, 155.39715757755758, 154.68, 154.68, 0.2167, -0.4506, -22.5307, 10.8336, 10.8336
147.18, (350.913,-18.165), 148.2571, 100.0, 148.67714193940984, 148.62, 148.62, 0.2679, -0.4222, -21.1082, 13.3957, 13.3957
142.74, (349.285,-17.004), 143.8171, 100.0, 144.17712961229503, 144.18, 144.18, 0.3002, -0.3998, -19.9921, 15.0105, 15.0105
134.04, (347.808,-15.659), 135.1171, 100.0, 135.1171181470916, 134.04, 134.04, 0.3594, -0.3476, -17.379, 17.9714, 17.9714
143.88, (346.459,-14.471), 144.9571, 100.0, 143.87710259472678, 141.78, 141.78, 0.3023, -0.3983, -19.9132, 15.115, 15.115
136.08, (344.9,-13.221), 137.1571, 100.0, 138.29708395487194, 137.94, 137.94, 0.3396, -0.367, -18.3492, 16.9796, 16.9796
134.04, (343.503,-11.79), 135.1171, 100.0, 135.11707026818908, 134.04, 134.04, 0.3594, -0.3476, -17.379, 17.9714, 17.9714
134.04, (342.112,-10.353), 135.1171, 100.0, 135.11705643690223, 134.04, 134.04, 0.3594, -0.3476, -17.379, 17.9714, 17.9714
134.04, (340.722,-8.915), 135.117, 100.0, 135.11703988820014, 134.04, 134.04, 0.3594, -0.3476, -17.379, 17.9714, 17.9714
134.04, (339.471,-7.621), 135.117, 100.0, 135.11702849399168, 134.04, 134.04, 0.3594, -0.3476, -17.379, 17.9714, 17.9714
143.28, (337.992,-6.278), 144.357, 100.0, 143.39701335906025, 141.24, 141.24, 0.3056, -0.3957, -19.7859, 15.2813, 15.2813
144.3, (336.37,-5.108), 145.377, 100.0, 145.37699526388545, 144.3, 144.3, 0.2918, -0.406, -20.3021, 14.5885, 14.5885
144.3, (334.746,-3.941), 145.377, 100.0, 145.37697448020177, 144.3, 144.3, 0.2918, -0.406, -20.3021, 14.5885, 14.5885
154.2, (333.024,-2.928), 155.277, 100.0, 155.276961953831, 153.06, 153.06, 0.2176, -0.4502, -22.508, 10.8808, 10.8808
160.2, (331.379,-2.2), 161.2769, 100.0, 160.55694529475434, 158.46, 158.46, 0.1753, -0.4683, -23.4137, 8.7634, 8.7634
164.76, (329.46,-1.638), 165.8369, 100.0, 165.83693124410848, 164.76, 164.76, 0.1314, -0.4824, -24.1208, 6.5716, 6.5716
172.26, (327.507,-1.217), 173.3369, 100.0, 173.33691729532595, 171.12, 171.12, 0.0673, -0.4954, -24.7722, 3.3669, 3.3669
174.9, (325.715,-1.048), 175.9769, 100.0, 175.97690098205547, 174.9, 174.9, 0.0444, -0.498, -24.901, 2.2224, 2.2224
174.9, (323.723,-0.871), 175.9769, 100.0, 175.97688468067904, 174.9, 174.9, 0.0444, -0.498, -24.901, 2.2224, 2.2224
174.9, (321.731,-0.693), 175.9769, 100.0, 175.9768726658378, 174.9, 174.9, 0.0444, -0.498, -24.901, 2.2224, 2.2224
174.48, (319.938,-0.533), 175.5569, 100.0, 175.9768529736924, 174.9, 174.9, 0.0444, -0.498, -24.901, 2.2224, 2.2224
164.76, (317.973,-0.176), 165.8368, 100.0, 166.19683307525307, 166.26, 166.26, 0.1284, -0.4832, -24.1616, 6.4199, 6.4199
170.64, (316.03,0.292), 171.7168, 100.0, 171.3568244199325, 169.14, 169.14, 0.0844, -0.4928, -24.6411, 4.2208, 4.2208
174.9, (314.041,0.498), 175.9768, 100.0, 175.97681071783788, 174.9, 174.9, 0.0444, -0.498, -24.901, 2.2224, 2.2224
174.9, (312.049,0.676), 175.9768, 100.0, 175.97679679933734, 174.9, 174.9, 0.0444, -0.498, -24.901, 2.2224, 2.2224
180.54, (310.253,0.791), 181.6168, 100.0, 180.5367832792961, 178.44, 178.44, 0.0047, -0.5, -24.9989, 0.2356, 0.2356
184.98, (308.259,0.656), 186.0568, 100.0, 186.0567671627995, -175.02, -175.02, -0.0434, -0.4981, -24.9056, -2.1702, -2.1702
184.98, (306.266,0.483), 186.0567, 100.0, 186.05674688067583, -175.02, -175.02, -0.0434, -0.4981, -24.9056, -2.1702, -2.1702
189.42, (304.279,0.266), 190.4967, 100.0, 190.49673132727838, -171.36, -171.36, -0.0818, -0.4933, -24.6629, -4.0918, -4.0918
195.06, (302.531,-0.162), 196.1367, 100.0, 196.13671845892713, -164.94, -164.94, -0.1299, -0.4828, -24.1414, -6.4958, -6.4958
195.06, (300.6,-0.681), 196.1367, 100.0, 196.13670165655503, -164.94, -164.94, -0.1299, -0.4828, -24.1414, -6.4958, -6.4958
195.06, (298.668,-1.201), 196.1367, 100.0, 196.13668235830377, -164.94, -164.94, -0.1299, -0.4828, -24.1414, -6.4958, -6.4958
195.06, (296.737,-1.721), 196.1367, 100.0, 196.13666684840211, -164.94, -164.94, -0.1299, -0.4828, -24.1414, -6.4958, -6.4958
185.34, (294.968,-2.04), 186.4167, 100.0, 187.13665136891925, -172.86, -172.86, -0.0528, -0.4972, -24.8603, -2.6392, -2.6392
187.14, (292.976,-2.222), 188.2166, 100.0, 187.8566390370797, -174.3, -174.3, -0.059, -0.4965, -24.8252, -2.9514, -2.9514
195, (291.023,-2.643), 196.0766, 100.0, 196.0766195698458, -165, -165, -0.1294, -0.483, -24.1481, -6.4705, -6.4705
193.74, (289.284,-3.106), 194.8166, 100.0, 195.4165986110298, -165, -165, -0.1238, -0.4844, -24.2211, -6.1919, -6.1919
184.68, (287.309,-3.411), 185.7566, 100.0, 185.75658080885034, -174.96, -174.96, -0.0408, -0.4983, -24.9166, -2.0398, -2.0398
184.68, (285.316,-3.574), 185.7566, 100.0, 185.75656308359186, -175.32, -175.32, -0.0408, -0.4983, -24.9166, -2.0398, -2.0398
184.68, (283.522,-3.721), 185.7565, 100.0, 185.75654869388205, -175.32, -175.32, -0.0408, -0.4983, -24.9166, -2.0398, -2.0398
184.68, (281.529,-3.884), 185.7565, 100.0, 185.75653055415754, -175.32, -175.32, -0.0408, -0.4983, -24.9166, -2.0398, -2.0398
184.32, (279.735,-4.031), 185.3965, 100.0, 185.7565189588643, -175.32, -175.32, -0.0408, -0.4983, -24.9166, -2.0398, -2.0398
174.54, (277.737,-4.011), 175.6165, 100.0, 175.97649915955503, 175.86, 175.86, 0.0444, -0.498, -24.901, 2.2224, 2.2224
168.36, (275.756,-3.75), 169.4365, 100.0, 169.7364810694181, 169.44, 169.44, 0.0983, -0.4902, -24.5119, 4.9158, 4.9158
164.52, (273.823,-3.237), 165.5965, 100.0, 165.5964616345915, 164.52, 164.52, 0.1335, -0.4819, -24.0931, 6.6725, 6.6725
164.52, (272.089,-2.756), 165.5964, 100.0, 165.59644666559225, 164.52, 164.52, 0.1335, -0.4819, -24.0931, 6.6725, 6.6725
164.52, (270.161,-2.222), 165.5964, 100.0, 165.59642224657742, 164.52, 164.52, 0.1335, -0.4819, -24.0931, 6.6725, 6.6725
167.46, (268.229,-1.707), 168.5364, 100.0, 168.5364035266576, 166.38, 166.38, 0.1086, -0.4881, -24.4036, 5.428, 5.428
174.78, (266.447,-1.466), 175.8564, 100.0, 175.8563888938756, 174.78, 174.78, 0.0455, -0.4979, -24.8963, 2.2745, 2.2745
165.24, (264.476,-1.141), 166.3164, 100.0, 167.03637520482314, 167.1, 167.1, 0.1213, -0.4851, -24.2532, 6.065, 6.065
155.7, (262.586,-0.493), 156.7764, 100.0, 157.55635414293775, 157.56, 157.56, 0.1995, -0.4585, -22.923, 9.9767, 9.9767
147.42, (260.82,0.44), 148.4963, 100.0, 148.85633963639944, 148.98, 148.98, 0.2666, -0.423, -21.1502, 13.3293, 13.3293
144.06, (259.352,1.483), 145.1363, 100.0, 145.13631703837416, 144.06, 144.06, 0.2935, -0.4048, -20.2408, 14.6734, 14.6734
136.14, (257.797,2.737), 137.2163, 100.0, 137.93630040784242, 137.7, 137.7, 0.3419, -0.3648, -18.2421, 17.0946, 17.0946
138, (256.384,4.152), 139.0763, 100.0, 138.77628130744978, 136.56, 136.56, 0.3365, -0.3698, -18.4908, 16.8253, 16.8253
144.06, (254.962,5.253), 145.1363, 100.0, 145.13626533250752, 144.06, 144.06, 0.2935, -0.4048, -20.2408, 14.6734, 14.6734
147.6, (253.332,6.412), 148.6762, 100.0, 147.95624590536542, 145.86, 145.86, 0.2732, -0.4188, -20.9382, 13.6599, 13.6599
154.38, (251.567,7.349), 155.4562, 100.0, 155.4562274119602, 154.38, 154.38, 0.2162, -0.4508, -22.542, 10.81, 10.81
158.46, (249.935,8.108), 159.5362, 100.0, 158.51621236338863, 156.24, 156.24, 0.1918, -0.4617, -23.087, 9.5913, 9.5913
164.58, (248.03,8.712), 165.6562, 100.0, 165.65619215264414, 164.58, 164.58, 0.1329, -0.482, -24.1001, 6.6473, 6.6473
164.58, (246.102,9.244), 165.6562, 100.0, 165.6561728023898, 164.58, 164.58, 0.1329, -0.482, -24.1001, 6.6473, 6.6473
164.58, (244.174,9.775), 165.6562, 100.0, 165.65615118818258, 164.58, 164.58, 0.1329, -0.482, -24.1001, 6.6473, 6.6473
164.58, (242.439,10.254), 165.6561, 100.0, 165.65613328406883, 164.58, 164.58, 0.1329, -0.482, -24.1001, 6.6473, 6.6473
164.58, (240.511,10.786), 165.6561, 100.0, 165.65611766993493, 164.58, 164.58, 0.1329, -0.482, -24.1001, 6.6473, 6.6473
173.76, (238.554,11.187), 174.8361, 100.0, 174.1160988318582, 172.02, 172.02, 0.0606, -0.4963, -24.8158, 3.0294, 3.0294
181.26, (236.559,11.297), 182.3361, 100.0, 182.03607713311268, 179.94, 179.94, -0.0084, -0.4999, -24.9965, -0.4189, -0.4189
190.32, (234.571,11.093), 191.3961, 100.0, 191.39606438342875, -171, -171, -0.0896, -0.4919, -24.5956, -4.4786, -4.4786
194.94, (232.631,10.608), 196.016, 100.0, 196.01604728990856, -165.06, -165.06, -0.1289, -0.4831, -24.1549, -6.4452, -6.4452
204.24, (230.933,10.017), 205.316, 100.0, 204.2960326359979, -157.8, -157.8, -0.1971, -0.4595, -22.9749, -9.8566, -9.8566
204.96, (229.119,9.175), 206.036, 100.0, 206.0360145899183, -155.04, -155.04, -0.211, -0.4533, -22.6651, -10.5496, -10.5496
204.96, (227.306,8.331), 206.036, 100.0, 206.0359993296741, -155.04, -155.04, -0.211, -0.4533, -22.6651, -10.5496, -10.5496
199.14, (225.655,7.616), 200.216, 100.0, 201.2359875660889, -158.82, -158.82, -0.1723, -0.4694, -23.4683, -8.6161, -8.6161
194.94, (223.733,7.064), 196.016, 100.0, 196.01596808267266, -165.06, -165.06, -0.1289, -0.4831, -24.1549, -6.4452, -6.4452
185.88, (221.771,6.686), 186.9559, 100.0, 187.7359494177815, -172.62, -172.62, -0.058, -0.4966, -24.8313, -2.8994, -2.8994
178.14, (219.775,6.602), 179.2159, 100.0, 179.2159364519607, 179.16, 179.16, 0.0162, -0.4997, -24.9868, 0.8114, 0.8114
174.6, (217.783,6.774), 175.6759, 100.0, 175.6759226582359, 174.6, 174.6, 0.0471, -0.4978, -24.889, 2.3527, 2.3527
174.6, (215.792,6.963), 175.6759, 100.0, 175.6759036625304, 174.6, 174.6, 0.0471, -0.4978, -24.889, 2.3527, 2.3527
182.58, (213.995,7.036), 183.6559, 100.0, 182.99588956462657, -179.22, -179.22, -0.0168, -0.4997, -24.986, -0.8376, -0.8376
177.66, (211.997,6.962), 178.7359, 100.0, 179.45587362928987, 179.46, 179.46, 0.0141, -0.4998, -24.99, 0.7068, 0.7068
181.14, (210.001,7.058), 182.2159, 100.0, 181.85585257250878, 179.4, 179.4, -0.0068, -0.5, -24.9977, -0.3403, -0.3403
184.86, (208.006,6.911), 185.9358, 100.0, 185.93583675993543, -175.14, -175.14, -0.0424, -0.4982, -24.9101, -2.118, -2.118
184.86, (206.014,6.741), 185.9358, 100.0, 185.9358184280638, -175.14, -175.14, -0.0424, -0.4982, -24.9101, -2.118, -2.118
186.6, (204.22,6.585), 187.6758, 100.0, 186.955802619288, -175.14, -175.14, -0.0512, -0.4974, -24.8685, -2.5611, -2.5611
194.94, (202.262,6.191), 196.0158, 100.0, 196.01578558680154, -165.06, -165.06, -0.1289, -0.4831, -24.1549, -6.4452, -6.4452
194.94, (200.33,5.675), 196.0158, 100.0, 196.0157672728515, -165.06, -165.06, -0.1289, -0.4831, -24.1549, -6.4452, -6.4452
195.3, (198.591,5.211), 196.3758, 100.0, 196.01575413608236, -165.06, -165.06, -0.1289, -0.4831, -24.1549, -6.4452, -6.4452
205.2, (196.715,4.524), 206.2757, 100.0, 205.91574316766508, -156.18, -156.18, -0.21, -0.4537, -22.6871, -10.5021, -10.5021
203.82, (194.904,3.676), 204.8957, 100.0, 205.25572490470717, -154.8, -154.8, -0.2048, -0.4561, -22.8066, -10.2401, -10.2401
195, (193.012,3.036), 196.0757, 100.0, 196.07570426966356, -165, -165, -0.1294, -0.483, -24.1481, -6.4705, -6.4705
196.8, (191.274,2.568), 197.8757, 100.0, 196.73569390046544, -165, -165, -0.135, -0.4814, -24.072, -6.7482, -6.7482
205.26, (189.416,1.835), 206.3357, 100.0, 206.3356772199143, -154.74, -154.74, -0.2134, -0.4522, -22.6095, -10.6682, -10.6682
205.26, (187.607,0.981), 206.3357, 100.0, 206.33566111201114, -154.74, -154.74, -0.2134, -0.4522, -22.6095, -10.6682, -10.6682
199.44, (185.771,0.192), 200.5156, 100.0, 200.51564716573833, -159.48, -159.48, -0.1664, -0.4715, -23.5748, -8.3205, -8.3205
199.5, (184.047,-0.327), 200.5756, 100.0, 199.79562730552126, -162.42, -162.42, -0.1605, -0.4735, -23.6775, -8.0236, -8.0236
205.5, (182.217,-1.128), 206.5756, 100.0, 206.57560347223045, -154.5, -154.5, -0.2153, -0.4513, -22.5646, -10.7628, -10.7628
208.8, (180.422,-2.01), 209.8756, 100.0, 209.87558435196232, -152.28, -152.28, -0.2409, -0.4382, -21.9077, -12.0438, -12.0438
213.12, (178.918,-2.997), 214.1956, 100.0, 214.85557019155289, -145.14, -145.14, -0.278, -0.4156, -20.7795, -13.9001, -13.9001
203.52, (177.156,-3.939), 204.5956, 100.0, 205.31555362822198, -154.98, -154.98, -0.2053, -0.4559, -22.7958, -10.264, -10.264
194.34, (175.262,-4.573), 195.4155, 100.0, 195.415541319292, -164.88, -164.88, -0.1238, -0.4844, -24.2211, -6.1919, -6.1919
184.74, (173.487,-4.858), 185.8155, 100.0, 186.17552389117205, -174.24, -174.24, -0.0444, -0.498, -24.901, -2.2224, -2.2224
174.9, (171.489,-4.858), 175.9755, 100.0, 176.395507212106, 176.4, 176.4, 0.0408, -0.4983, -24.9166, 2.0398, 2.0398
165.48, (169.52,-4.522), 166.5555, 100.0, 166.91549135805448, 166.56, 166.56, 0.1223, -0.4848, -24.2404, 6.1158, 6.1158
164.76, (167.591,-3.997), 165.8355, 100.0, 165.83547377328114, 164.76, 164.76, 0.1314, -0.4824, -24.1208, 6.5716, 6.5716
155.28, (165.899,-3.388), 156.3555, 100.0, 157.13545536414009, 157.2, 157.2, 0.2029, -0.457, -22.8493, 10.1445, 10.1445
161.16, (164.065,-2.594), 162.2354, 100.0, 161.57543511804167, 159.42, 159.42, 0.1669, -0.4713, -23.566, 8.3452, 8.3452
159.78, (162.156,-1.998), 160.8554, 100.0, 160.85541837462156, 160.86, 160.86, 0.1728, -0.4692, -23.4593, 8.6406, 8.6406
154.5, (160.514,-1.263), 155.5754, 100.0, 155.5754051499586, 154.5, 154.5, 0.2153, -0.4513, -22.5646, 10.7628, 10.7628
158.94, (158.694,-0.434), 160.0154, 100.0, 159.71538433310891, 157.56, 157.56, 0.1821, -0.4657, -23.2828, 9.1057, 9.1057
164.52, (156.782,0.147), 165.5954, 100.0, 165.5953645099057, 164.52, 164.52, 0.1335, -0.4819, -24.0931, 6.6725, 6.6725
167.64, (154.85,0.663), 168.7153, 100.0, 168.4153474418686, 166.32, 166.32, 0.1096, -0.4878, -24.3922, 5.4791, 5.4791
174.72, (153.068,0.906), 175.7953, 100.0, 175.79532693007647, 174.72, 174.72, 0.046, -0.4979, -24.8939, 2.3006, 2.3006
179.28, (151.074,1.055), 180.3553, 100.0, 179.9953135165198, 177.66, 177.66, 0.0094, -0.4999, -24.9956, 0.4712, 0.4712
184.92, (149.078,0.936), 185.9953, 100.0, 185.99529215595524, -175.08, -175.08, -0.0429, -0.4982, -24.9079, -2.1441, -2.1441
184.92, (147.086,0.765), 185.9953, 100.0, 185.99527894278503, -175.08, -175.08, -0.0429, -0.4982, -24.9079, -2.1441, -2.1441
178.5, (145.089,0.674), 179.5753, 100.0, 179.5752587163005, 179.52, 179.52, 0.0131, -0.4998, -24.9914, 0.6544, 0.6544
174.6, (143.296,0.824), 175.6752, 100.0, 175.67524312822033, 174.6, 174.6, 0.0471, -0.4978, -24.889, 2.3527, 2.3527
170.7, (141.307,1.035), 171.7752, 100.0, 172.49522123216886, 172.44, 172.44, 0.0746, -0.4944, -24.7202, 3.7298, 3.7298
167.46, (139.361,1.489), 168.5352, 100.0, 168.1152038975212, 165.96, 165.96, 0.1121, -0.4873, -24.3632, 5.6068, 5.6068
176.64, (137.579,1.733), 177.7152, 100.0, 176.69518878411122, 174.6, 174.6, 0.0382, -0.4985, -24.927, 1.9093, 1.9093
184.74, (135.582,1.687), 185.8152, 100.0, 185.81517130848502, -175.26, -175.26, -0.0413, -0.4983, -24.9145, -2.0659, -2.0659
192, (133.601,1.427), 193.0752, 100.0, 192.71515501772808, -169.2, -169.2, -0.1009, -0.4897, -24.4859, -5.044, -5.044
189.48, (131.652,0.98), 190.5551, 100.0, 190.55513610136603, -169.56, -169.56, -0.0824, -0.4932, -24.6586, -4.1176, -4.1176
189.42, (129.865,0.768), 190.4951, 100.0, 189.71512199542053, -172.44, -172.44, -0.0751, -0.4943, -24.7163, -3.7556, -3.7556
196.68, (127.922,0.301), 197.7551, 100.0, 197.33510643641313, -164.7, -164.7, -0.14, -0.48, -24, -6.9999, -6.9999
204.78, (126.065,-0.436), 205.8551, 100.0, 206.21508606839916, -154.56, -154.56, -0.2124, -0.4526, -22.6318, -10.6208, -10.6208
195.36, (124.181,-1.098), 196.4351, 100.0, 196.4350675905405, -164.28, -164.28, -0.1324, -0.4821, -24.107, -6.6221, -6.6221
197.34, (122.446,-1.58), 198.4151, 100.0, 197.75505022073, -164.34, -164.34, -0.1435, -0.479, -23.9481, -7.1757, -7.1757
206.04, (120.596,-2.333), 207.115, 100.0, 206.69503211031412, -154.38, -154.38, -0.2162, -0.4508, -22.542, -10.81, -10.81
215.76, (118.88,-3.355), 216.835, 100.0, 216.53501833098866, -145.5, -145.5, -0.2901, -0.4073, -20.363, -14.5034, -14.5034
211.56, (117.238,-4.496), 212.635, 100.0, 212.99500416821618, -147.3, -147.3, -0.2644, -0.4244, -21.2197, -13.2184, -13.2184
205.44, (115.458,-5.405), 206.515, 100.0, 206.5149852620341, -154.56, -154.56, -0.2148, -0.4515, -22.5759, -10.7391, -10.7391
197.76, (113.796,-6.093), 198.835, 100.0, 199.61496928991988, -160.38, -160.38, -0.159, -0.4741, -23.7025, -7.9492, -7.9492
193.92, (111.87,-6.63), 194.995, 100.0, 195.77495567182945, -164.64, -164.64, -0.1269, -0.4836, -24.1817, -6.3439, -6.3439
185.04, (109.897,-6.942), 186.1149, 100.0, 186.11494513744134, -174.6, -174.6, -0.0439, -0.4981, -24.9033, -2.1963, -2.1963
185.04, (107.905,-7.117), 186.1149, 100.0, 186.11492469429808, -174.96, -174.96, -0.0439, -0.4981, -24.9033, -2.1963, -2.1963
185.04, (106.112,-7.275), 186.1149, 100.0, 186.11490577685393, -174.96, -174.96, -0.0439, -0.4981, -24.9033, -2.1963, -2.1963
174.78, (104.114,-7.266), 175.8549, 100.0, 176.21488865761512, 176.22, 176.22, 0.0424, -0.4982, -24.9101, 2.118, 2.118
183.9, (102.117,-7.246), 184.9749, 100.0, 184.97487202403192, -176.82, -176.82, -0.034, -0.4988, -24.9421, -1.7004, -1.7004
193.32, (100.339,-7.514), 194.3949, 100.0, 193.73485906804154, -168.3, -168.3, -0.1096, -0.4878, -24.3922, -5.4791, -5.4791
195.06, (98.406,-8.028), 196.1348, 100.0, 196.13484198178764, -164.94, -164.94, -0.1299, -0.4828, -24.1414, -6.4958, -6.4958
185.22, (96.439,-8.372), 186.2948, 100.0, 186.29482716088575, -173.64, -173.64, -0.0455, -0.4979, -24.8963, -2.2745, -2.2745
189.06, (94.648,-8.547), 190.1348, 100.0, 189.054810453624, -172.98, -172.98, -0.0694, -0.4952, -24.7579, -3.4707, -3.4707
195, (92.701,-8.999), 196.0748, 100.0, 196.07479443858708, -165, -165, -0.1294, -0.483, -24.1481, -6.4705, -6.4705
195, (90.769,-9.517), 196.0748, 100.0, 196.0747721239961, -165, -165, -0.1294, -0.483, -24.1481, -6.4705, -6.4705
204.84, (88.892,-10.201), 205.9148, 100.0, 205.6147521036016, -156.54, -156.54, -0.2077, -0.4548, -22.7418, -10.3832, -10.3832
200.88, (87.253,-10.944), 201.9547, 100.0, 202.97473769608126, -157.02, -157.02, -0.1865, -0.4639, -23.1959, -9.3247, -9.3247
199.08, (85.348,-11.549), 200.1547, 100.0, 199.434719151083, -162.72, -162.72, -0.1575, -0.4745, -23.7274, -7.8747, -7.8747
208.38, (83.522,-12.359), 209.4547, 100.0, 209.09470702384166, -152.76, -152.76, -0.2349, -0.4414, -22.0696, -11.7445, -11.7445
215.7, (81.852,-13.457), 216.7747, 100.0, 216.77468980905024, -144.3, -144.3, -0.2918, -0.406, -20.3021, -14.5885, -14.5885
211.8, (80.38,-14.493), 212.8747, 100.0, 213.89467702173198, -146.04, -146.04, -0.271, -0.4202, -21.0094, -13.55, -13.55
208.56, (78.619,-15.439), 209.6347, 100.0, 209.03465729066562, -153.06, -153.06, -0.2344, -0.4416, -22.0819, -11.7214, -11.7214
215.88, (76.947,-16.532), 216.9546, 100.0, 216.95463886008497, -144.12, -144.12, -0.293, -0.4051, -20.2562, -14.6522, -14.6522
215.88, (75.327,-17.705), 216.9546, 100.0, 216.95461672863794, -144.12, -144.12, -0.293, -0.4051, -20.2562, -14.6522, -14.6522
215.88, (73.706,-18.877), 216.9546, 100.0, 216.9546015100439, -144.12, -144.12, -0.293, -0.4051, -20.2562, -14.6522, -14.6522
215.88, (72.248,-19.932), 216.9546, 100.0, 216.9545888548787, -144.12, -144.12, -0.293, -0.4051, -20.2562, -14.6522, -14.6522
209.82, (70.593,-21.053), 210.8946, 100.0, 211.5545697313383, -148.8, -148.8, -0.2536, -0.4309, -21.5452, -12.6809, -12.6809
205.62, (68.804,-21.946), 206.6946, 100.0, 206.6945543515472, -154.38, -154.38, -0.2162, -0.4508, -22.542, -10.81, -10.81
196.38, (66.939,-22.661), 197.4545, 100.0, 197.45454224598262, -162.6, -162.6, -0.141, -0.4797, -23.9853, -7.0502, -7.0502
201.36, (65.219,-23.187), 202.4345, 100.0, 201.41452431747416, -160.74, -160.74, -0.1738, -0.4688, -23.4412, -8.6898, -8.6898
200.22, (63.383,-23.98), 201.2945, 100.0, 202.074513288478, -157.8, -157.8, -0.1792, -0.4668, -23.3395, -8.9592, -8.9592
191.1, (61.46,-24.523), 192.1745, 100.0, 192.5344973962833, -167.4, -167.4, -0.0993, -0.49, -24.5016, -4.9671, -4.9671
181.56, (59.475,-24.74), 182.6345, 100.0, 182.99447906356517, -177.06, -177.06, -0.0168, -0.4997, -24.986, -0.8376, -0.8376
175.5, (57.479,-24.633), 176.5745, 100.0, 176.57446011444574, 174.78, 174.78, 0.0392, -0.4985, -24.9229, 1.9615, 1.9615
184.92, (55.681,-24.651), 185.9945, 100.0, 185.6344500675373, -176.52, -176.52, -0.0398, -0.4984, -24.9209, -1.9876, -1.9876
175.26, (53.683,-24.668), 176.3344, 100.0, 177.0544376139081, 176.64, 176.64, 0.0351, -0.4988, -24.9385, 1.7526, 1.7526
166.02, (51.711,-24.351), 167.0944, 100.0, 167.4544213862479, 167.52, 167.52, 0.1177, -0.4859, -24.297, 5.887, 5.887
159.48, (49.798,-23.772), 160.5544, 100.0, 160.55440399897896, 160.56, 160.56, 0.1753, -0.4683, -23.4137, 8.7634, 8.7634
152.28, (48.163,-23.02), 153.3544, 100.0, 154.13439435048275, 154.2, 154.2, 0.2265, -0.4457, -22.287, 11.3264, 11.3264
144.42, (46.478,-21.947), 145.4944, 100.0, 145.4943749967473, 144.42, 144.42, 0.2909, -0.4067, -20.3326, 14.546, 14.546
145.26, (44.851,-20.784), 146.3344, 100.0, 145.91436433790497, 144.42, 144.42, 0.2879, -0.4088, -20.4387, 14.3965, 14.3965
154.68, (43.29,-19.89), 155.7543, 100.0, 155.33434529479138, 153.18, 153.18, 0.2171, -0.4504, -22.5194, 10.8572, 10.8572
154.68, (41.483,-19.035), 155.7543, 100.0, 155.7543263763592, 154.68, 154.68, 0.2138, -0.452, -22.5983, 10.6918, 10.6918
154.68, (39.675,-18.18), 155.7543, 100.0, 155.75430683690186, 154.68, 154.68, 0.2138, -0.452, -22.5983, 10.6918, 10.6918
148.14, (38.077,-17.354), 149.2143, 100.0, 150.2942961669818, 149.82, 149.82, 0.2559, -0.4296, -21.4785, 12.7936, 12.7936
138.84, (36.465,-16.173), 139.9143, 100.0, 140.27428279912894, 140.28, 140.28, 0.3267, -0.3785, -18.9249, 16.3355, 16.3355
134.34, (35.043,-14.768), 135.4143, 100.0, 135.4142642900264, 134.34, 134.34, 0.3576, -0.3495, -17.4729, 17.8801, 17.8801
134.34, (33.645,-13.338), 135.4143, 100.0, 135.41425111608783, 134.34, 134.34, 0.3576, -0.3495, -17.4729, 17.8801, 17.8801
136.68, (32.383,-12.054), 137.7542, 100.0, 136.7342361470221, 134.7, 134.7, 0.3495, -0.3576, -17.8801, 17.4729, 17.4729
144.48, (30.825,-10.804), 145.5542, 100.0, 145.55422000089618, 144.48, 144.48, 0.2905, -0.407, -20.3478, 14.5247, 14.5247
144.48, (29.197,-9.642), 145.5542, 100.0, 145.5541998524742, 144.48, 144.48, 0.2905, -0.407, -20.3478, 14.5247, 14.5247
144.48, (27.732,-8.597), 145.5542, 100.0, 145.55418560654564, 144.48, 144.48, 0.2905, -0.407, -20.3478, 14.5247, 14.5247
137.4, (26.156,-7.368), 138.4742, 100.0, 139.25417188106547, 139.02, 139.02, 0.3334, -0.3726, -18.6311, 16.6698, 16.6698
134.34, (24.747,-5.949), 135.4142, 100.0, 135.41415941962418, 134.34, 134.34, 0.3576, -0.3495, -17.4729, 17.8801, 17.8801
127.98, (23.4,-4.472), 129.0541, 100.0, 129.41413956327037, 129.42, 129.42, 0.3922, -0.3102, -15.5082, 19.6086, 19.6086
123.96, (22.26,-2.829), 125.0341, 100.0, 125.03412603524578, 123.96, 123.96, 0.4147, -0.2793, -13.9653, 20.7357, 20.7357
123.96, (21.254,-1.336), 125.0341, 100.0, 125.03411114379836, 123.96, 123.96, 0.4147, -0.2793, -13.9653, 20.7357, 20.7357
123.96, (20.137,0.322), 125.0341, 100.0, 125.0340941134005, 123.96, 123.96, 0.4147, -0.2793, -13.9653, 20.7357, 20.7357
123.96, (19.02,1.981), 125.0341, 100.0, 125.03407539158196, 123.96, 123.96, 0.4147, -0.2793, -13.9653, 20.7357, 20.7357
114.24, (18.138,3.548), 115.3141, 100.0, 116.39405955644223, 116.34, 116.34, 0.452, -0.2138, -10.6918, 22.5983, 22.5983
113.94, (17.326,5.376), 115.014, 100.0, 115.01403720451468, 113.94, 113.94, 0.457, -0.2029, -10.1445, 22.8493, 22.8493
123.66, (16.376,7.133), 124.734, 100.0, 124.13402503659299, 122.1, 122.1, 0.419, -0.2728, -13.6379, 20.9525, 20.9525
123.96, (15.259,8.792), 125.034, 100.0, 125.03400439545426, 123.96, 123.96, 0.4147, -0.2793, -13.9653, 20.7357, 20.7357
129.72, (14.089,10.412), 130.794, 100.0, 130.793986493397, 128.64, 128.64, 0.3846, -0.3195, -15.9759, 19.2294, 19.2294
134.16, (12.855,11.722), 135.234, 100.0, 135.23396992016794, 134.16, 134.16, 0.3587, -0.3483, -17.4166, 17.9349, 17.9349
140.82, (11.414,13.107), 141.894, 100.0, 141.17395243595166, 139.08, 139.08, 0.3207, -0.3836, -19.1791, 16.0362, 16.0362
149.94, (9.772,14.245), 151.0139, 100.0, 150.65393275759925, 148.5, 148.5, 0.2532, -0.4312, -21.5584, 12.6584, 12.6584
154.38, (7.982,15.137), 155.4539, 100.0, 155.45392046913932, 154.38, 154.38, 0.2162, -0.4508, -22.542, 10.81, 10.81
154.38, (6.359,15.915), 155.4539, 100.0, 155.45390882275035, 154.38, 154.38, 0.2162, -0.4508, -22.542, 10.81, 10.81
145.14, (4.622,16.902), 146.2139, 100.0, 146.8738969019051, 146.82, 146.82, 0.281, -0.4135, -20.677, 14.0521, 14.0521
144.12, (3.001,18.072), 145.1939, 100.0, 145.19388231132993, 144.12, 144.12, 0.293, -0.4051, -20.2562, 14.6522, 14.6522
152.04, (1.32,19.152), 153.1139, 100.0, 152.75385891073586, 150.54, 150.54, 0.2372, -0.4402, -22.0078, 11.8599, 11.8599
159.18, (-0.496,19.989), 160.2538, 100.0, 159.89384936883565, 157.74, 157.74, 0.1806, -0.4662, -23.3112, 9.0325, 9.0325
164.46, (-2.41,20.566), 165.5338, 100.0, 165.5338405031958, 164.46, 164.46, 0.134, -0.4817, -24.0861, 6.6978, 6.6978
164.46, (-4.144,21.049), 165.5338, 100.0, 165.53382666255246, 164.46, 164.46, 0.134, -0.4817, -24.0861, 6.6978, 6.6978
166.56, (-6.072,21.579), 167.6338, 100.0, 166.91380948908008, 164.76, 164.76, 0.1223, -0.4848, -24.2404, 6.1158, 6.1158
174.66, (-8.048,21.876), 175.7338, 100.0, 175.73378961967876, 174.66, 174.66, 0.0465, -0.4978, -24.8915, 2.3266, 2.3266
174.66, (-10.039,22.062), 175.7338, 100.0, 175.7337710109831, 174.66, 174.66, 0.0465, -0.4978, -24.8915, 2.3266, 2.3266
178.02, (-11.833,22.214), 179.0938, 100.0, 178.43375404895403, 175.98, 175.98, 0.023, -0.4995, -24.9735, 1.1515, 1.1515
184.98, (-13.829,22.129), 186.0537, 100.0, 186.05374274968207, -175.02, -175.02, -0.0434, -0.4981, -24.9056, -2.1702, -2.1702
177.66, (-15.826,22.053), 178.7337, 100.0, 179.0337227594716, 179.16, 179.16, 0.0178, -0.4997, -24.9842, 0.8899, 0.8899
167.46, (-17.609,22.281), 168.5337, 100.0, 169.5537116809369, 169.5, 169.5, 0.0999, -0.4899, -24.4964, 4.9927, 4.9927
157.56, (-19.515,22.877), 158.6337, 100.0, 158.99369396516408, 158.88, 158.88, 0.188, -0.4633, -23.1665, 9.3975, 9.3975
147.18, (-21.283,23.807), 148.2537, 100.0, 148.55367372781097, 148.56, 148.56, 0.2688, -0.4216, -21.0801, 13.4398, 13.4398
137.16, (-22.854,25.039), 138.2337, 100.0, 138.23365855396224, 138.24, 138.24, 0.34, -0.3666, -18.3314, 16.9988, 16.9988
127.2, (-24.181,26.533), 128.2736, 100.0, 128.27363711886966, 127.86, 127.86, 0.3983, -0.3023, -15.115, 19.9132, 19.9132
117.06, (-25.133,28.058), 118.1336, 100.0, 118.91362423169777, 118.86, 118.86, 0.4421, -0.2335, -11.6751, 22.1064, 22.1064
106.68, (-25.885,29.908), 107.7536, 100.0, 108.41360799954958, 108.42, 108.42, 0.4773, -0.149, -7.451, 23.8638, 23.8638
96.48, (-26.29,31.864), 97.5536, 100.0, 97.91359929351579, 98.28, 98.28, 0.4964, -0.0595, -2.9774, 24.8221, 24.8221
88.92, (-26.403,33.859), 89.9936, 100.0, 90.35358456420614, 90.36, 90.36, 0.5, 0.0063, 0.3142, 24.998, 24.998
84.72, (-26.248,35.853), 85.7936, 100.0, 85.79356301349897, 84.72, 84.72, 0.4979, 0.046, 2.3006, 24.8939, 24.8939
76.2, (-25.965,37.629), 77.2735, 100.0, 77.6935488644423, 78.06, 78.06, 0.4864, 0.1157, 5.7852, 24.3214, 24.3214
82.32, (-25.53,39.579), 83.3935, 100.0, 82.55353012537343, 80.46, 80.46, 0.4945, 0.0741, 3.7039, 24.7241, 24.7241
91.74, (-25.421,41.574), 92.8135, 100.0, 92.45351411497137, 90.3, 90.3, 0.4999, -0.012, -0.6021, 24.9927, 24.9927
94.98, (-25.58,43.567), 96.0535, 100.0, 96.05350008527061, 94.98, 94.98, 0.4981, -0.0434, -2.1702, 24.9056, 24.9056
94.98, (-25.736,45.361), 96.0535, 100.0, 96.05348378973068, 94.98, 94.98, 0.4981, -0.0434, -2.1702, 24.9056, 24.9056
99.24, (-25.936,47.35), 100.3135, 100.0, 99.7134683161092, 97.44, 97.44, 0.4943, -0.0751, -3.7556, 24.7163, 24.7163
105.66, (-26.397,49.295), 106.7334, 100.0, 106.37344819547931, 105, 105, 0.4823, -0.1319, -6.5968, 24.1139, 24.1139
115.32, (-27.026,50.979), 116.3934, 100.0, 115.61343422903697, 113.46, 113.46, 0.4548, -0.2077, -10.3832, 22.7418, 22.7418
115.32, (-27.882,52.787), 116.3934, 100.0, 116.39341953080495, 115.32, 115.32, 0.452, -0.2138, -10.6918, 22.5983, 22.5983
115.32, (-28.737,54.595), 116.3934, 100.0, 116.39340509753146, 115.32, 115.32, 0.452, -0.2138, -10.6918, 22.5983, 22.5983
107.94, (-29.502,56.441), 109.0134, 100.0, 109.3733950723962, 109.32, 109.32, 0.4747, -0.157, -7.8498, 23.7356, 23.7356
105.18, (-30.036,58.368), 106.2534, 100.0, 106.25337815063318, 105.18, 105.18, 0.4826, -0.1309, -6.5463, 24.1277, 24.1277
105.18, (-30.507,60.105), 106.2534, 100.0, 106.25336852413595, 105.18, 105.18, 0.4826, -0.1309, -6.5463, 24.1277, 24.1277
102, (-31.017,62.039), 103.0734, 100.0, 103.8533515978414, 103.86, 103.86, 0.4876, -0.1106, -5.5302, 24.3807, 24.3807
95.16, (-31.283,64.02), 96.2333, 100.0, 96.23333485966745, 95.16, 95.16, 0.498, -0.045, -2.2484, 24.8987, 24.8987
95.16, (-31.445,65.812), 96.2333, 100.0, 96.23331865471746, 95.16, 95.16, 0.498, -0.045, -2.2484, 24.8987, 24.8987
103.86, (-31.748,67.787), 104.9333, 100.0, 104.21330118773545, 102.12, 102.12, 0.4869, -0.1137, -5.6833, 24.3454, 24.3454
105.18, (-32.269,69.718), 106.2533, 100.0, 106.25328155860763, 105.18, 105.18, 0.4826, -0.1309, -6.5463, 24.1277, 24.1277
96.12, (-32.645,71.68), 97.1933, 100.0, 97.19326375285249, 97.26, 97.26, 0.4972, -0.0533, -2.6653, 24.8575, 24.8575
95.04, (-32.822,73.672), 96.1132, 100.0, 96.11324939286114, 95.04, 95.04, 0.4981, -0.0439, -2.1963, 24.9033, 24.9033
103.68, (-33.098,75.448), 104.7532, 100.0, 104.03323167927283, 101.94, 101.94, 0.4873, -0.1121, -5.6068, 24.3632, 24.3632
105.18, (-33.618,77.38), 106.2532, 100.0, 106.25321779405968, 105.18, 105.18, 0.4826, -0.1309, -6.5463, 24.1277, 24.1277
105.18, (-34.142,79.31), 106.2532, 100.0, 106.25320246267354, 105.18, 105.18, 0.4826, -0.1309, -6.5463, 24.1277, 24.1277
95.52, (-34.48,81.076), 96.5932, 100.0, 97.61318869801639, 97.62, 97.62, 0.4967, -0.0569, -2.8474, 24.8373, 24.8373
102.42, (-34.746,83.056), 103.4932, 100.0, 102.83317145431776, 100.62, 100.62, 0.4895, -0.1019, -5.0953, 24.4752, 24.4752
103.44, (-35.256,84.99), 104.5132, 100.0, 104.87315627038222, 104.76, 104.76, 0.4856, -0.1193, -5.9633, 24.2784, 24.2784
95.4, (-35.546,86.967), 96.4731, 100.0, 96.47313874764288, 95.4, 95.4, 0.4978, -0.0471, -2.3527, 24.889, 24.889
91.8, (-35.696,88.76), 92.8731, 100.0, 93.59312760151212, 93.54, 93.54, 0.4995, -0.022, -1.0992, 24.9758, 24.9758
85.26, (-35.609,90.757), 86.3331, 100.0, 86.33310880788989, 85.26, 85.26, 0.4983, 0.0413, 2.0659, 24.9145, 24.9145
85.26, (-35.444,92.75), 86.3331, 100.0, 86.33309250139087, 85.26, 85.26, 0.4983, 0.0413, 2.0659, 24.9145, 24.9145
85.26, (-35.278,94.743), 86.3331, 100.0, 86.3330743890143, 85.26, 85.26, 0.4983, 0.0413, 2.0659, 24.9145, 24.9145
82.74, (-35.123,96.536), 83.8131, 100.0, 84.89306096379784, 84.9, 84.9, 0.4971, 0.0538, 2.6913, 24.8547, 24.8547
75, (-34.716,98.492), 76.073, 100.0, 76.07304710065074, 75, 75, 0.483, 0.1294, 6.4705, 24.1481, 24.1481
75, (-34.199,100.424), 76.073, 100.0, 76.07303560551074, 75, 75, 0.483, 0.1294, 6.4705, 24.1481, 24.1481
78.36, (-33.706,102.362), 79.433, 100.0, 79.43301702604639, 77.34, 77.34, 0.4897, 0.1009, 5.044, 24.4859, 24.4859
85.14, (-33.49,104.148), 86.213, 100.0, 86.21300062602963, 85.14, 85.14, 0.4982, 0.0424, 2.118, 24.9101, 24.9101
87.36, (-33.33,106.141), 88.433, 100.0, 88.0729828499443, 85.8, 85.8, 0.4993, 0.0262, 1.3084, 24.9657, 24.9657
95.46, (-33.411,108.137), 96.533, 100.0, 96.53296823464198, 95.46, 95.46, 0.4977, -0.0476, -2.3788, 24.8866, 24.8866
94.08, (-33.579,109.93), 95.153, 100.0, 95.87295494344755, 95.46, 95.46, 0.4982, -0.0418, -2.0919, 24.9123, 24.9123
84.48, (-33.555,111.927), 85.5529, 100.0, 86.27293216816349, 85.62, 85.62, 0.4982, 0.0418, 2.0919, 24.9123, 24.9123
75.12, (-33.189,113.891), 76.1929, 100.0, 76.19291406194054, 75.78, 75.78, 0.4832, 0.1284, 6.4199, 24.1616, 24.1616
75.12, (-32.727,115.63), 76.1929, 100.0, 76.19289533719108, 75.12, 75.12, 0.4832, 0.1284, 6.4199, 24.1616, 24.1616
75.12, (-32.213,117.563), 76.1929, 100.0, 76.19287762379075, 75.12, 75.12, 0.4832, 0.1284, 6.4199, 24.1616, 24.1616
76.14, (-31.702,119.497), 77.2129, 100.0, 76.85285962572182, 75.12, 75.12, 0.4847, 0.1228, 6.1411, 24.234, 24.234
85.44, (-31.426,121.273), 86.5128, 100.0, 86.51284557799917, 84.36, 84.36, 0.4984, 0.0398, 1.9876, 24.9209, 24.9209
76.56, (-31.133,123.249), 77.6328, 100.0, 77.99282549924555, 77.94, 77.94, 0.487, 0.1132, 5.6578, 24.3514, 24.3514
83.16, (-30.734,125.207), 84.2328, 100.0, 83.87281004234316, 81.96, 81.96, 0.4961, 0.0627, 3.1333, 24.8029, 24.8029
93.12, (-30.671,127.004), 94.1928, 100.0, 93.05278778301279, 91.02, 91.02, 0.4997, -0.0173, -0.8638, 24.9851, 24.9851
103.32, (-30.943,128.983), 104.3928, 100.0, 103.55276578510879, 101.46, 101.46, 0.4882, -0.108, -5.4025, 24.4093, 24.4093
113.46, (-31.572,130.878), 114.5327, 100.0, 114.17274569835143, 112.08, 112.08, 0.4599, -0.1962, -9.8084, 22.9955, 22.9955
123.36, (-32.529,132.631), 124.4327, 100.0, 124.43272877036945, 122.22, 122.22, 0.4176, -0.2749, -13.7474, 20.8808, 20.8808
133.26, (-33.648,134.039), 134.3327, 100.0, 133.672711792483, 131.88, 131.88, 0.368, -0.3384, -16.9219, 18.4024, 18.4024
143.22, (-35.14,135.367), 144.2927, 100.0, 143.87269663336414, 142.08, 142.08, 0.3023, -0.3983, -19.9132, 15.115, 15.115
153.48, (-36.845,136.406), 154.5527, 100.0, 154.55268536972895, 152.04, 152.04, 0.2233, -0.4474, -22.3695, 11.1628, 11.1628
163.62, (-38.517,137.069), 164.6927, 100.0, 163.5526675619767, 161.4, 161.4, 0.1505, -0.4768, -23.8403, 7.526, 7.526
165.48, (-40.45,137.579), 166.5527, 100.0, 166.55265105152728, 165.48, 165.48, 0.1254, -0.484, -24.2015, 6.2679, 6.2679
165.48, (-42.386,138.081), 166.5526, 100.0, 166.55263633621914, 165.48, 165.48, 0.1254, -0.484, -24.2015, 6.2679, 6.2679
167.58, (-44.325,138.574), 168.6526, 100.0, 168.29262315878916, 166.2, 166.2, 0.1106, -0.4876, -24.3807, 5.5302, 5.5302
175.2, (-46.306,138.832), 176.2726, 100.0, 176.27260957996927, 175.56, 175.56, 0.0418, -0.4982, -24.9123, 2.0919, 2.0919
165.24, (-48.076,139.148), 166.3126, 100.0, 166.67259398271088, 166.8, 166.8, 0.1243, -0.4843, -24.2146, 6.2172, 6.2172
155.7, (-49.962,139.807), 156.7726, 100.0, 157.43257297721416, 157.02, 157.02, 0.2005, -0.458, -22.9021, 10.0247, 10.0247
146.28, (-51.711,140.771), 147.3526, 100.0, 147.71256194757524, 147.78, 147.78, 0.2749, -0.4176, -20.8808, 13.7474, 13.7474
136.86, (-53.275,142.014), 137.9325, 100.0, 137.93254491029415, 138, 138, 0.3419, -0.3648, -18.2421, 17.0946, 17.0946
134.64, (-54.542,143.292), 135.7125, 100.0, 135.7125292051092, 134.64, 134.64, 0.3558, -0.3513, -17.5662, 17.7884, 17.7884
126.24, (-55.86,144.793), 127.3125, 100.0, 127.73251078667779, 127.68, 127.68, 0.4011, -0.2985, -14.9266, 20.0548, 20.0548
124.44, (-56.997,146.438), 125.5125, 100.0, 125.51249603509683, 124.44, 124.44, 0.4124, -0.2828, -14.1386, 20.618, 20.618
124.44, (-58.128,148.088), 125.5125, 100.0, 125.51247986145675, 124.44, 124.44, 0.4124, -0.2828, -14.1386, 20.618, 20.618
121.38, (-59.135,149.579), 122.4525, 100.0, 123.17246182790103, 123.12, 123.12, 0.4236, -0.2657, -13.285, 21.178, 21.178
111.6, (-60.038,151.362), 112.6724, 100.0, 113.75244220356252, 113.7, 113.7, 0.4613, -0.1928, -9.6396, 23.0668, 23.0668
104.16, (-60.63,153.27), 105.2324, 100.0, 105.23242349999218, 104.16, 104.16, 0.4848, -0.1223, -6.1158, 24.2404, 24.2404
94.32, (-60.956,155.24), 95.3924, 100.0, 95.75240809482725, 95.76, 95.76, 0.4983, -0.0408, -2.0398, 24.9166, 24.9166
93.96, (-61.094,157.235), 95.0324, 100.0, 95.03239276590656, 93.96, 93.96, 0.4988, -0.0345, -1.7265, 24.9403, 24.9403
93.96, (-61.218,159.031), 95.0324, 100.0, 95.03238165495964, 93.96, 93.96, 0.4988, -0.0345, -1.7265, 24.9403, 24.9403
93.96, (-61.356,161.026), 95.0324, 100.0, 95.03236061862859, 93.96, 93.96, 0.4988, -0.0345, -1.7265, 24.9403, 24.9403
91.8, (-61.483,163.022), 92.8723, 100.0, 92.87233744552864, 92.82, 92.82, 0.4998, -0.0157, -0.7853, 24.9877, 24.9877
83.94, (-61.39,164.818), 85.0123, 100.0, 85.01232278412736, 83.94, 83.94, 0.4972, 0.0528, 2.6392, 24.8603, 24.8603
74.52, (-61.037,166.784), 75.5923, 100.0, 76.19230455041128, 76.14, 76.14, 0.4832, 0.1284, 6.4199, 24.1616, 24.1616
67.86, (-60.415,168.683), 68.9323, 100.0, 68.93228831565024, 69, 69, 0.4631, 0.1884, 9.4218, 23.1566, 23.1566
63.48, (-59.632,170.304), 64.5523, 100.0, 64.55227109000508, 63.48, 63.48, 0.4474, 0.2233, 11.1628, 22.3695, 22.3695
63.48, (-58.739,172.093), 64.5523, 100.0, 64.55225408471114, 63.48, 63.48, 0.4474, 0.2233, 11.1628, 22.3695, 22.3695
60.9, (-57.833,173.876), 61.9722, 100.0, 61.9722396267502, 62.04, 62.04, 0.4369, 0.2432, 12.1584, 21.8443, 21.8443
51.42, (-56.825,175.366), 52.4922, 100.0, 53.512220350181515, 53.46, 53.46, 0.3964, 0.3048, 15.2398, 19.8179, 19.8179
44.4, (-55.46,176.824), 45.4722, 100.0, 44.75220872183052, 43.32, 43.32, 0.3453, 0.3616, 18.0802, 17.2658, 17.2658
54.72, (-54.169,178.348), 55.7922, 100.0, 55.43219766680286, 53.34, 53.34, 0.4063, 0.2913, 14.5673, 20.3174, 20.3174
64.44, (-53.258,179.898), 65.5122, 100.0, 64.79217995844567, 62.64, 62.64, 0.4483, 0.2214, 11.069, 22.416, 22.416
74.64, (-52.557,181.768), 75.7122, 100.0, 75.41216186091208, 73.02, 73.02, 0.4814, 0.135, 6.7482, 24.072, 24.072
84.9, (-52.203,183.734), 85.9721, 100.0, 85.61214269762282, 83.34, 83.34, 0.4977, 0.0476, 2.3788, 24.8866, 24.8866
94.86, (-52.208,185.732), 95.9321, 100.0, 95.9321252299768, 93.78, 93.78, 0.4982, -0.0424, -2.118, 24.9101, 24.9101
105.18, (-52.572,187.695), 106.2521, 100.0, 106.25210982728225, 104.1, 104.1, 0.4826, -0.1309, -6.5463, 24.1277, 24.1277
115.26, (-53.197,189.381), 116.3321, 100.0, 115.61209690918506, 113.52, 113.52, 0.4548, -0.2077, -10.3832, 22.7418, 22.7418
125.46, (-54.201,191.108), 126.5321, 100.0, 125.81208064774077, 123.66, 123.66, 0.4109, -0.2849, -14.2463, 20.5437, 20.5437
132.9, (-55.491,192.634), 133.9721, 100.0, 134.2720640227766, 133.56, 133.56, 0.3645, -0.3423, -17.1137, 18.2242, 18.2242
123.48, (-56.599,194.05), 124.552, 100.0, 124.97204893223012, 124.92, 124.92, 0.415, -0.2789, -13.9436, 20.7503, 20.7503
123.48, (-57.702,195.718), 124.552, 100.0, 124.55203015081271, 123.48, 123.48, 0.417, -0.2758, -13.7911, 20.852, 20.852
125.4, (-58.811,197.382), 126.472, 100.0, 126.05201409918114, 123.84, 123.84, 0.4097, -0.2866, -14.3323, 20.4838, 20.4838
132.72, (-60.108,198.903), 133.792, 100.0, 133.7919966899309, 133.8, 133.8, 0.3673, -0.3392, -16.9604, 18.3669, 18.3669
123.36, (-61.208,200.325), 124.432, 100.0, 124.7919824552795, 124.68, 124.68, 0.4159, -0.2776, -13.8784, 20.794, 20.794
113.58, (-62.161,202.08), 114.652, 100.0, 115.01196181928186, 114.72, 114.72, 0.457, -0.2029, -10.1445, 22.8493, 22.8493
114.66, (-62.965,203.911), 115.7319, 100.0, 115.7319464112374, 113.58, 113.58, 0.4544, -0.2086, -10.4308, 22.72, 22.72
123.42, (-63.859,205.471), 124.4919, 100.0, 124.85193737114298, 123.06, 123.06, 0.4156, -0.278, -13.9001, 20.7795, 20.7795
113.52, (-64.813,207.225), 114.5919, 100.0, 114.95192203113623, 114.96, 114.96, 0.4572, -0.2024, -10.1206, 22.8599, 22.8599
104.04, (-65.457,209.116), 105.1119, 100.0, 105.1119006037977, 105.24, 105.24, 0.4851, -0.1213, -6.065, 24.2532, 24.2532
94.68, (-65.754,210.89), 95.7519, 100.0, 96.47188353581494, 96.48, 96.48, 0.4978, -0.0471, -2.3527, 24.889, 24.889
91.38, (-65.865,212.886), 92.4519, 100.0, 92.81186816439019, 92.88, 92.88, 0.4998, -0.0152, -0.7591, 24.9885, 24.9885
83.1, (-65.737,214.88), 84.1719, 100.0, 84.17185204340565, 83.1, 83.1, 0.4964, 0.0601, 3.0034, 24.8189, 24.8189
83.1, (-65.521,216.667), 84.1718, 100.0, 84.17184141987768, 83.1, 83.1, 0.4964, 0.0601, 3.0034, 24.8189, 24.8189
83.1, (-65.281,218.653), 84.1718, 100.0, 84.17181914398695, 83.1, 83.1, 0.4964, 0.0601, 3.0034, 24.8189, 24.8189
76.68, (-64.97,220.627), 77.7518, 100.0, 78.11180592245366, 78.12, 78.12, 0.4873, 0.1121, 5.6068, 24.3632, 24.3632
73.08, (-64.41,222.546), 74.1518, 100.0, 74.151790278498, 73.08, 73.08, 0.4784, 0.1455, 7.2759, 23.9178, 23.9178
73.08, (-63.828,224.46), 74.1518, 100.0, 74.15177087551123, 73.08, 73.08, 0.4784, 0.1455, 7.2759, 23.9178, 23.9178
73.08, (-63.304,226.182), 74.1518, 100.0, 74.15175537051904, 73.08, 73.08, 0.4784, 0.1455, 7.2759, 23.9178, 23.9178
73.08, (-62.722,228.095), 74.1517, 100.0, 74.15174158991204, 73.08, 73.08, 0.4784, 0.1455, 7.2759, 23.9178, 23.9178
65.82, (-62.044,229.975), 66.8917, 100.0, 66.89172597558665, 66.96, 66.96, 0.4561, 0.2048, 10.2401, 22.8066, 22.8066
63, (-61.237,231.584), 64.0717, 100.0, 64.07171314613231, 63, 63, 0.4455, 0.227, 11.3498, 22.2752, 22.2752
63, (-60.329,233.366), 64.0717, 100.0, 64.07169163440791, 63, 63, 0.4455, 0.227, 11.3498, 22.2752, 22.2752
63, (-59.421,235.148), 64.0717, 100.0, 64.07167524645637, 63, 63, 0.4455, 0.227, 11.3498, 22.2752, 22.2752
72.54, (-58.66,236.994), 73.6117, 100.0, 73.25165772247263, 71.46, 71.46, 0.476, 0.153, 7.6507, 23.8006, 23.8006
69.18, (-58.05,238.899), 70.2516, 100.0, 70.25164064761272, 70.38, 70.38, 0.4674, 0.1777, 8.8858, 23.3675, 23.3675
63, (-57.285,240.526), 64.0716, 100.0, 64.07161959438673, 63, 63, 0.4455, 0.227, 11.3498, 22.2752, 22.2752
72.72, (-56.514,242.369), 73.7916, 100.0, 73.13160458591969, 70.92, 70.92, 0.4757, 0.154, 7.7005, 23.7845, 23.7845
64.92, (-55.824,244.244), 65.9916, 100.0, 66.35158674415999, 66.3, 66.3, 0.4542, 0.2091, 10.4546, 22.7091, 22.7091
70.62, (-55.012,246.07), 71.6916, 100.0, 71.33157358794465, 69.18, 69.18, 0.4706, 0.1689, 8.4438, 23.5309, 23.5309
73.32, (-54.429,247.983), 74.3916, 100.0, 74.39155818488034, 73.32, 73.32, 0.479, 0.1435, 7.1757, 23.9481, 23.9481
67.86, (-53.814,249.67), 68.9315, 100.0, 67.91154576582683, 66.78, 66.78, 0.4533, 0.1939, 9.6948, 22.6635, 22.6635
77.88, (-53.335,251.174), 78.9515, 100.0, 78.53153449830963, 76.38, 76.38, 0.3085, 0.0686, 3.4305, 15.4231, 15.4231
88.32, (-53.219,252.048), 89.3915, 100.0, 89.03152245110545, 87, 87, 0.1409, 0.005, 0.251, 7.0455, 7.0455
98.22, (-53.223,252.258), 99.2915, 100.0, 98.21151096966793, 96.18, 96.18, 0, -0, -0, 0, 0
108.42, (-53.223,252.258), 109.4915, 100.0, 108.77149671937312, 180, 180, 0, -0, -0, 0, 0
118.38, (-53.223,252.258), 119.4515, 100.0, 119.15148176224949, 180, 180, 0, -0, -0, 0, 0
128.76, (-53.223,252.258), 129.8315, 100.0, 129.53146529253968, 180, 180, 0, -0, -0, 0, 0
138.84, (-53.223,252.258), 139.9115, 100.0, 139.9114520482886, 180, 180, 0, -0, -0, 0, 0
148.86, (-53.223,252.258), 149.9314, 100.0, 149.2114407701801, 180, 180, 0, -0, -0, 0, 0
159.18, (-53.223,252.258), 160.2514, 100.0, 159.53141945564482, 180, 180, 0, -0, -0, 0, 0
169.14, (-53.223,252.258), 170.2114, 100.0, 169.4914026092855, 180, 180, 0, -0, -0, 0, 0
179.34, (-53.223,252.258), 180.4114, 100.0, 179.69138304952634, 180, 180, 0, -0, -0, 0, 0
189.3, (-53.223,252.258), 190.3714, 100.0, 190.0713643699054, -180, -180, -0, -0, -0, -0, -0
199.62, (-53.223,252.258), 200.6913, 100.0, 200.03134722943065, -180, -180, -0, -0, -0, -0, -0
209.7, (-53.223,252.258), 210.7713, 100.0, 210.41133355664672, -180, -180, -0, -0, -0, -0, -0
219.48, (-53.223,252.258), 220.5513, 100.0, 219.8313138424016, -180, -180, -0, -0, -0, -0, -0
229.86, (-53.223,252.258), 230.9313, 100.0, 230.2113002189436, -180, -180, -0, -0, -0, -0, -0
239.88, (-53.223,252.258), 240.9513, 100.0, 240.2912754018103, -180, -180, -0, -0, -0, -0, -0
243.66, (-53.236,252.229), 244.7313, 100.0, 245.45125883453082, -114.48, -114.48, -0.0388, -0.0186, -0.9297, -1.9386, -1.9386
246.78, (-53.477,251.734), 247.8512, 100.0, 247.49124653895018, -114.66, -114.66, -0.197, -0.086, -4.3003, -9.8524, -9.8524
253.02, (-53.87,250.555), 254.0912, 100.0, 254.09122784837643, -106.98, -106.98, -0.373, -0.1139, -5.6947, -18.6499, -18.6499
244.02, (-54.477,248.992), 245.0912, 100.0, 245.81121324577663, -114.18, -114.18, -0.4522, -0.2134, -10.6682, -22.6095, -22.6095
248.88, (-55.328,247.183), 249.9512, 100.0, 249.65119235810778, -112.5, -112.5, -0.4655, -0.1826, -9.13, -23.2732, -23.2732
253.32, (-55.932,245.277), 254.3912, 100.0, 254.39117885696248, -106.68, -106.68, -0.479, -0.1435, -7.1757, -23.9481, -23.9481
253.32, (-56.448,243.553), 254.3912, 100.0, 254.39116576291022, -106.68, -106.68, -0.479, -0.1435, -7.1757, -23.9481, -23.9481
253.32, (-57.022,241.637), 254.3911, 100.0, 254.39114917376907, -106.68, -106.68, -0.479, -0.1435, -7.1757, -23.9481, -23.9481
260.28, (-57.519,239.701), 261.3511, 100.0, 260.69113264900574, -101.34, -101.34, -0.4918, -0.0901, -4.5044, -24.5909, -24.5909
257.52, (-57.829,237.726), 258.5911, 100.0, 259.07111270041406, -101.28, -101.28, -0.4891, -0.104, -5.1978, -24.4537, -24.4537
253.38, (-58.323,235.996), 254.4511, 100.0, 254.45109945490202, -106.62, -106.62, -0.4791, -0.143, -7.1506, -23.9556, -23.9556
253.68, (-58.895,234.079), 254.7511, 100.0, 254.4510897748051, -106.62, -106.62, -0.4791, -0.143, -7.1506, -23.9556, -23.9556
263.64, (-59.281,232.12), 264.7111, 100.0, 264.7110735821656, -97.38, -97.38, -0.4969, -0.0554, -2.7694, -24.8461, -24.8461
267.72, (-59.472,230.129), 268.7911, 100.0, 268.43105882646995, -93.6, -93.6, -0.4995, -0.023, -1.1515, -24.9735, -24.9735
273.84, (-59.408,228.332), 274.911, 100.0, 274.9110482456565, -86.16, -86.16, -0.4989, 0.0335, 1.6743, -24.9439, -24.9439
273.84, (-59.274,226.336), 274.911, 100.0, 274.91103583704455, -86.16, -86.16, -0.4989, 0.0335, 1.6743, -24.9439, -24.9439
273.84, (-59.14,224.341), 274.911, 100.0, 274.9110214364147, -86.16, -86.16, -0.4989, 0.0335, 1.6743, -24.9439, -24.9439
271.8, (-59.014,222.345), 272.871, 100.0, 273.17100689184423, -86.88, -86.88, -0.4997, 0.0183, 0.9161, -24.9832, -24.9832
263.82, (-59.106,220.549), 264.891, 100.0, 264.8909926050469, -96.18, -96.18, -0.4971, -0.0538, -2.6913, -24.8547, -24.8547
268.5, (-59.286,218.557), 269.571, 100.0, 268.9109738131156, -93.18, -93.18, -0.4996, -0.0188, -0.9423, -24.9822, -24.9822
274.08, (-59.2,216.56), 275.151, 100.0, 275.1509543874277, -85.92, -85.92, -0.4987, 0.0356, 1.7787, -24.9366, -24.9366
274.08, (-59.057,214.565), 275.1509, 100.0, 275.15093593738993, -85.92, -85.92, -0.4987, 0.0356, 1.7787, -24.9366, -24.9366
281.46, (-58.817,212.582), 282.5309, 100.0, 282.2309175460661, -79.92, -79.92, -0.4905, 0.0968, 4.8387, -24.5273, -24.5273
291, (-58.255,210.665), 292.0709, 100.0, 291.7109106932042, -70.32, -70.32, -0.4679, 0.1762, 8.8124, -23.3953, -23.3953
294.12, (-57.532,209.016), 295.1909, 100.0, 295.1908902919473, -65.88, -65.88, -0.4563, 0.2043, 10.2162, -22.8173, -22.8173
295.8, (-56.712,207.192), 296.8709, 100.0, 296.21087027647815, -65.88, -65.88, -0.4526, 0.2124, 10.6208, -22.6318, -22.6318
304.44, (-55.694,205.474), 305.5109, 100.0, 305.51085622185246, -55.56, -55.56, -0.4124, 0.2828, 14.1386, -20.618, -20.618
304.44, (-54.563,203.824), 305.5108, 100.0, 305.5108408188418, -55.56, -55.56, -0.4124, 0.2828, 14.1386, -20.618, -20.618
294.9, (-53.666,202.266), 295.9708, 100.0, 297.1108276449057, -63.24, -63.24, -0.4492, 0.2195, 10.975, -22.4622, -22.4622
294.24, (-52.844,200.443), 295.3108, 100.0, 295.31081325515095, -65.76, -65.76, -0.4559, 0.2053, 10.264, -22.7958, -22.7958
294.24, (-52.023,198.619), 295.3108, 100.0, 295.31080270571886, -65.76, -65.76, -0.4559, 0.2053, 10.264, -22.7958, -22.7958
294.24, (-51.202,196.795), 295.3108, 100.0, 295.3107830241761, -65.76, -65.76, -0.4559, 0.2053, 10.264, -22.7958, -22.7958
294.24, (-50.381,194.972), 295.3108, 100.0, 295.31076850080586, -65.76, -65.76, -0.4559, 0.2053, 10.264, -22.7958, -22.7958
291.9, (-49.647,193.328), 292.9708, 100.0, 293.99075849374583, -66.12, -66.12, -0.4605, 0.1947, 9.7361, -23.0262, -23.0262
282.84, (-49.049,191.422), 283.9107, 100.0, 284.63074744527955, -76.08, -76.08, -0.4861, 0.1172, 5.8616, -24.3031, -24.3031
273.78, (-48.771,189.444), 274.8507, 100.0, 274.85073334104095, -85.86, -85.86, -0.4989, 0.033, 1.6481, -24.9456, -24.9456
273.78, (-48.639,187.448), 274.8507, 100.0, 274.8507196943006, -86.22, -86.22, -0.4989, 0.033, 1.6481, -24.9456, -24.9456
273.78, (-48.508,185.452), 274.8507, 100.0, 274.850701293253, -86.22, -86.22, -0.4989, 0.033, 1.6481, -24.9456, -24.9456
273.78, (-48.376,183.457), 274.8507, 100.0, 274.85068619752747, -86.22, -86.22, -0.4989, 0.033, 1.6481, -24.9456, -24.9456
280.92, (-48.181,181.669), 281.9907, 100.0, 281.3306721808599, -81.06, -81.06, -0.492, 0.0891, 4.4529, -24.6002, -24.6002
283.86, (-47.719,179.723), 284.9307, 100.0, 284.93065495861595, -76.14, -76.14, -0.4854, 0.1198, 5.9888, -24.2721, -24.2721
289.5, (-47.189,177.796), 290.5706, 100.0, 289.8506358971107, -72.3, -72.3, -0.4734, 0.161, 8.0484, -23.669, -23.669
295.62, (-46.409,175.955), 296.6906, 100.0, 296.03061420184883, -66.12, -66.12, -0.4533, 0.211, 10.5496, -22.6651, -22.6651
304.14, (-45.396,174.233), 305.2106, 100.0, 305.21060322422153, -55.86, -55.86, -0.4138, 0.2806, 14.0304, -20.6917, -20.6917
304.14, (-44.274,172.578), 305.2106, 100.0, 305.2105829178934, -55.86, -55.86, -0.4138, 0.2806, 14.0304, -20.6917, -20.6917
297.06, (-43.227,170.875), 298.1306, 100.0, 298.5505681737877, -61.44, -61.44, -0.4436, 0.2307, 11.536, -22.1793, -22.1793
294, (-42.482,169.237), 295.0706, 100.0, 295.07055081099884, -66, -66, -0.4568, 0.2034, 10.1684, -22.8386, -22.8386
301.2, (-41.593,167.447), 302.2705, 100.0, 301.61052858124395, -60.48, -60.48, -0.4306, 0.2541, 12.7035, -21.5319, -21.5319
304.02, (-40.487,165.782), 305.0905, 100.0, 305.09051173268364, -55.98, -55.98, -0.4144, 0.2797, 13.9871, -20.7211, -20.7211
304.02, (-39.368,164.124), 305.0905, 100.0, 305.0904912531339, -55.98, -55.98, -0.4144, 0.2797, 13.9871, -20.7211, -20.7211
304.02, (-38.249,162.466), 305.0905, 100.0, 305.0904724223411, -55.98, -55.98, -0.4144, 0.2797, 13.9871, -20.7211, -20.7211
304.02, (-37.13,160.809), 305.0905, 100.0, 305.090458317949, -55.98, -55.98, -0.4144, 0.2797, 13.9871, -20.7211, -20.7211
295.86, (-36.112,159.09), 296.9304, 100.0, 297.2904365811641, -62.7, -62.7, -0.4486, 0.2209, 11.0455, -22.4276, -22.4276
293.64, (-35.303,157.26), 294.7104, 100.0, 294.71042246105014, -66.36, -66.36, -0.458, 0.2005, 10.0247, -22.9021, -22.9021
290.82, (-34.515,155.422), 291.8904, 100.0, 292.2504027971414, -67.74, -67.74, -0.4662, 0.1806, 9.0325, -23.3112, -23.3112
285.18, (-33.957,153.503), 286.2504, 100.0, 285.9503842165554, -76.2, -76.2, -0.4832, 0.1284, 6.4199, -24.1616, -24.1616
293.46, (-33.344,151.813), 294.5304, 100.0, 294.530365966066, -66.9, -66.9, -0.4587, 0.1991, 9.9527, -22.9335, -22.9335
293.46, (-32.548,149.978), 294.5303, 100.0, 294.53034302216497, -66.54, -66.54, -0.4587, 0.1991, 9.9527, -22.9335, -22.9335
284.52, (-31.871,148.099), 285.5903, 100.0, 286.3703248417892, -73.68, -73.68, -0.4823, 0.1319, 6.5968, -24.1139, -24.1139
284.22, (-31.41,146.153), 285.2903, 100.0, 284.57030608566555, -76.8, -76.8, -0.4862, 0.1167, 5.8361, -24.3092, -24.3092
294.12, (-30.763,144.263), 295.1903, 100.0, 294.77028783954853, -67.62, -67.62, -0.4578, 0.201, 10.0487, -22.8916, -22.8916
304.2, (-29.786,142.521), 305.2703, 100.0, 304.91027256032896, -57.18, -57.18, -0.4153, 0.2784, 13.9219, -20.7649, -20.7649
314.28, (-28.519,140.976), 315.3503, 100.0, 314.9302547187529, -47.16, -47.16, -0.3605, 0.3464, 17.3225, -18.0259, -18.0259
324.3, (-27.002,139.678), 325.3702, 100.0, 325.37023822011054, -36.96, -36.96, -0.2918, 0.406, 20.3021, -14.5885, -14.5885
334.2, (-25.454,138.763), 335.2702, 100.0, 334.6102266914211, -27.48, -27.48, -0.2228, 0.4476, 22.3811, -11.1393, -11.1393
344.52, (-23.587,138.052), 345.5902, 100.0, 344.8702095375574, -17.22, -17.22, -0.1395, 0.4801, 24.0073, -6.9748, -6.9748
354.54, (-21.624,137.683), 355.6102, 100.0, 354.89019168841725, -7.08, -7.08, -0.0538, 0.4971, 24.8547, -2.6913, -2.6913
4.56, (-19.627,137.669), 5.6302, 100.0, 5.270176573730389, 3.06, 3.06, 0.0366, 0.4987, 24.9329, 1.831, 1.831
13.5, (-17.854,137.969), 14.5702, 100.0, 14.570163796294414, 12.72, 12.72, 0.1167, 0.4862, 24.3092, 5.8361, 5.8361
22.62, (-15.945,138.558), 23.6901, 100.0, 22.970147368245414, 20.82, 20.82, 0.1865, 0.4639, 23.1959, 9.3247, 9.3247
23.7, (-14.112,139.358), 24.7701, 100.0, 24.770125216069705, 23.7, 23.7, 0.201, 0.4578, 22.8916, 10.0487, 10.0487
23.7, (-12.281,140.162), 24.7701, 100.0, 24.77010478323249, 23.7, 23.7, 0.201, 0.4578, 22.8916, 10.0487, 10.0487
23.7, (-10.45,140.966), 24.7701, 100.0, 24.770087435584742, 23.7, 23.7, 0.201, 0.4578, 22.8916, 10.0487, 10.0487
23.7, (-8.618,141.77), 24.7701, 100.0, 24.770070009636154, 23.7, 23.7, 0.201, 0.4578, 22.8916, 10.0487, 10.0487
23.7, (-6.787,142.574), 24.77, 100.0, 24.77004916637745, 23.7, 23.7, 0.201, 0.4578, 22.8916, 10.0487, 10.0487
30.12, (-5.165,143.351), 31.19, 100.0, 30.23003234806067, 27.9, 27.9, 0.2436, 0.4366, 21.8316, 12.1813, 12.1813
28.5, (-3.465,144.403), 29.57, 100.0, 30.23001390808707, 30.18, 30.18, 0.2436, 0.4366, 21.8316, 12.1813, 12.1813
19.44, (-1.639,145.215), 20.51, 100.0, 20.869994262012685, 20.76, 20.76, 0.1694, 0.4704, 23.522, 8.4684, 8.4684
10.02, (0.299,145.702), 11.09, 100.0, 11.089980050819362, 11.04, 11.04, 0.087, 0.4924, 24.6187, 4.3498, 4.3498
3.18, (2.09,145.864), 4.25, 100.0, 4.249967775367938, 3.18, 3.18, 0.0277, 0.4992, 24.9615, 1.3868, 1.3868
358.86, (4.088,145.935), 359.83, 100.0, 359.8300495740922, 0.24, 0.24, -0.0099, 0.4999, 24.9951, -0.4974, -0.4974
353.1, (5.879,145.765), 354.07, 100.0, 354.07003346855817, -6.9, -6.9, -0.0601, 0.4964, 24.8189, -3.0034, -3.0034
343.02, (7.834,145.353), 343.99, 100.0, 344.29001264759916, -15.54, -15.54, -0.1435, 0.479, 23.9481, -7.1757, -7.1757
343.02, (9.747,144.769), 343.99, 100.0, 343.98999779108976, -16.98, -16.98, -0.146, 0.4782, 23.9102, -7.3009, -7.3009
343.02, (11.66,144.185), 343.99, 100.0, 343.9899825576851, -16.98, -16.98, -0.146, 0.4782, 23.9102, -7.3009, -7.3009
343.02, (13.381,143.66), 343.99, 100.0, 343.9899687177912, -16.98, -16.98, -0.146, 0.4782, 23.9102, -7.3009, -7.3009
343.02, (15.294,143.076), 343.99, 100.0, 343.98995287647756, -16.98, -16.98, -0.146, 0.4782, 23.9102, -7.3009, -7.3009
352.26, (17.244,142.644), 353.2299, 100.0, 353.22993529204115, -8.88, -8.88, -0.0673, 0.4954, 24.7722, -3.3669, -3.3669
353.04, (19.031,142.426), 354.0099, 100.0, 354.009920578611, -6.96, -6.96, -0.0606, 0.4963, 24.8158, -3.0294, -3.0294
359.64, (21.022,142.253), 0.6099, 100.0, 359.94990479640177, -2.04, -2.04, -0.0089, 0.4999, 24.996, -0.445, -0.445
9.06, (23.014,142.402), 10.0299, 100.0, 9.36988586303425, 7.68, 7.68, 0.073, 0.4946, 24.7318, 3.6521, 3.6521
13.14, (24.968,142.829), 14.1099, 100.0, 14.109872567877693, 13.14, 13.14, 0.1137, 0.4869, 24.3454, 5.6833, 5.6833
4.08, (26.743,143.114), 5.0499, 100.0, 6.069864511246805, 6.18, 6.18, 0.0444, 0.498, 24.901, 2.2224, 2.2224
3.06, (28.74,143.224), 4.0298, 100.0, 4.029848880532506, 3.06, 3.06, 0.0267, 0.4993, 24.9644, 1.3345, 1.3345
354.72, (30.738,143.212), 355.7902, 100.0, 356.51015581805586, -3.9, -3.9, -0.0398, 0.4984, 24.9209, -1.9876, -1.9876
352.68, (32.722,142.963), 353.7501, 100.0, 353.75013893694717, -7.32, -7.32, -0.0637, 0.4959, 24.7963, -3.1853, -3.1853
343.92, (34.68,142.569), 344.9901, 100.0, 344.990122137031, -15, -15, -0.1385, 0.4804, 24.0219, -6.9245, -6.9245
342.36, (36.396,142.026), 343.4301, 100.0, 343.4301148129802, -17.64, -17.64, -0.1515, 0.4765, 23.8245, -7.5759, -7.5759
332.4, (38.244,141.268), 333.4701, 100.0, 334.0700932210258, -25.92, -25.92, -0.227, 0.4455, 22.2752, -11.3498, -11.3498
322.8, (39.94,140.213), 323.8701, 100.0, 324.53007593136226, -35.52, -35.52, -0.2977, 0.4017, 20.086, -14.8846, -14.8846
320.94, (41.512,138.976), 322.0101, 100.0, 322.79005781801493, -38.28, -38.28, -0.3098, 0.3925, 19.6248, -15.4876, -15.4876
312, (42.948,137.588), 313.07, 100.0, 312.7700425787835, -47.58, -47.58, -0.3733, 0.3326, 16.6308, -18.666, -18.666
321.84, (44.411,136.227), 322.91, 100.0, 322.9100260500187, -39.18, -39.18, -0.3089, 0.3931, 19.6572, -15.4465, -15.4465
330.72, (45.894,135.211), 331.79, 100.0, 330.83000986126757, -31.2, -31.2, -0.2518, 0.432, 21.5981, -12.5906, -12.5906
332.04, (47.658,134.268), 333.11, 100.0, 333.10999095286707, -27.96, -27.96, -0.2344, 0.4416, 22.0819, -11.7214, -11.7214
340.02, (49.472,133.431), 341.09, 100.0, 340.72998452974366, -21.36, -21.36, -0.1738, 0.4688, 23.4412, -8.6898, -8.6898
338.4, (51.365,132.788), 339.47, 100.0, 339.829966290388, -20.16, -20.16, -0.1811, 0.466, 23.3018, -9.0569, -9.0569
334.44, (53.165,131.919), 335.51, 100.0, 335.20995012119727, -27, -27, -0.2181, 0.4499, 22.4966, -10.9043, -10.9043
342.18, (54.846,131.279), 343.2499, 100.0, 343.2499378152711, -17.82, -17.82, -0.153, 0.476, 23.8006, -7.6507, -7.6507
342.18, (56.75,130.667), 343.2499, 100.0, 343.2499196075913, -17.82, -17.82, -0.153, 0.476, 23.8006, -7.6507, -7.6507
339.78, (58.651,130.046), 340.8499, 100.0, 341.5099011017568, -18.54, -18.54, -0.1674, 0.4711, 23.5573, -8.3698, -8.3698
333.24, (60.462,129.203), 334.3099, 100.0, 334.3098848475751, -27.84, -27.84, -0.2251, 0.4465, 22.3225, -11.2564, -11.2564
342.36, (62.133,128.537), 343.4299, 100.0, 343.4298696438281, -18.66, -18.66, -0.1515, 0.4765, 23.8245, -7.5759, -7.5759
352.14, (64.079,128.088), 353.2099, 100.0, 352.84985314158024, -9.24, -9.24, -0.0715, 0.4949, 24.7432, -3.5744, -3.5744
352.44, (66.062,127.825), 353.5098, 100.0, 353.50984168129906, -7.56, -7.56, -0.0658, 0.4957, 24.7827, -3.2891, -3.2891
352.44, (68.044,127.562), 353.5098, 100.0, 353.5098257069926, -7.56, -7.56, -0.0658, 0.4957, 24.7827, -3.2891, -3.2891
352.44, (69.828,127.325), 353.5098, 100.0, 353.50981285477565, -7.56, -7.56, -0.0658, 0.4957, 24.7827, -3.2891, -3.2891
352.44, (71.811,127.062), 353.5098, 100.0, 353.5097985851644, -7.56, -7.56, -0.0658, 0.4957, 24.7827, -3.2891, -3.2891
351.66, (73.794,126.797), 352.7298, 100.0, 353.0897843064603, -7.56, -7.56, -0.0694, 0.4952, 24.7579, -3.4707, -3.4707
342.36, (75.736,126.33), 343.4298, 100.0, 343.429764663478, -17.28, -17.28, -0.1515, 0.4765, 23.8245, -7.5759, -7.5759
334.5, (77.419,125.696), 335.5698, 100.0, 336.34975225003933, -23.58, -23.58, -0.2091, 0.4542, 22.7091, -10.4546, -10.4546
332.1, (79.192,124.772), 333.1697, 100.0, 333.16973624201694, -27.9, -27.9, -0.234, 0.4419, 22.0941, -11.6982, -11.6982
336.3, (80.973,123.864), 337.3697, 100.0, 336.94971989575214, -25.2, -25.2, -0.2043, 0.4563, 22.8173, -10.2162, -10.2162
342.12, (82.858,123.196), 343.1897, 100.0, 343.189705764083, -17.88, -17.88, -0.1535, 0.4759, 23.7925, -7.6756, -7.6756
342.12, (84.571,122.644), 343.1897, 100.0, 343.1896927361239, -17.88, -17.88, -0.1535, 0.4759, 23.7925, -7.6756, -7.6756
346.92, (86.485,122.068), 347.9897, 100.0, 347.62967221899623, -14.64, -14.64, -0.1162, 0.4863, 24.3153, -5.8107, -5.8107
352.2, (88.46,121.754), 353.2697, 100.0, 353.26965299329316, -7.8, -7.8, -0.0679, 0.4954, 24.7687, -3.3929, -3.3929
351.42, (90.441,121.48), 352.4896, 100.0, 352.4896391364205, -7.8, -7.8, -0.0746, 0.4944, 24.7202, -3.7298, -3.7298
342.06, (92.189,121.057), 343.1296, 100.0, 343.4896226652413, -16.74, -16.74, -0.151, 0.4766, 23.8324, -7.5509, -7.5509
342.06, (94.091,120.441), 343.1296, 100.0, 343.1296061264648, -17.94, -17.94, -0.154, 0.4757, 23.7845, -7.7005, -7.7005
344.88, (95.998,119.839), 345.9496, 100.0, 345.5895865727986, -16.5, -16.5, -0.1335, 0.4819, 24.0931, -6.6725, -6.6725
352.14, (97.766,119.509), 353.2096, 100.0, 353.20956984440653, -7.86, -7.86, -0.0684, 0.4953, 24.7651, -3.4188, -3.4188
342.54, (99.718,119.086), 343.6096, 100.0, 344.329554739297, -15.6, -15.6, -0.144, 0.4788, 23.9405, -7.2007, -7.2007
341.82, (101.619,118.463), 342.8895, 100.0, 342.8895315707795, -18.18, -18.18, -0.156, 0.475, 23.752, -7.8001, -7.8001
341.82, (103.329,117.901), 342.8895, 100.0, 342.88951406676006, -18.18, -18.18, -0.156, 0.475, 23.752, -7.8001, -7.8001
344.88, (105.233,117.291), 345.9495, 100.0, 345.2894978771901, -16.86, -16.86, -0.136, 0.4812, 24.0578, -6.7986, -6.7986
351.84, (107.197,116.922), 352.9095, 100.0, 352.9094788647102, -8.16, -8.16, -0.071, 0.4949, 24.7469, -3.5484, -3.5484
346.68, (108.973,116.629), 347.7495, 100.0, 348.5294609946798, -11.4, -11.4, -0.1086, 0.4881, 24.4036, -5.428, -5.428
341.58, (110.885,116.046), 342.6494, 100.0, 342.64944275202555, -18.42, -18.42, -0.158, 0.4744, 23.7191, -7.8995, -7.8995
341.58, (112.782,115.414), 342.6494, 100.0, 342.6494244680694, -18.42, -18.42, -0.158, 0.4744, 23.7191, -7.8995, -7.8995
341.58, (114.49,114.845), 342.6494, 100.0, 342.6494080000589, -18.42, -18.42, -0.158, 0.4744, 23.7191, -7.8995, -7.8995
351.48, (116.429,114.367), 352.5494, 100.0, 351.8293918148884, -10.26, -10.26, -0.0803, 0.4935, 24.6756, -4.0143, -4.0143
351.12, (118.409,114.082), 352.1894, 100.0, 352.54938078365143, -8.16, -8.16, -0.0741, 0.4945, 24.7241, -3.7039, -3.7039
341.76, (120.347,113.597), 342.8294, 100.0, 342.82936744744114, -17.58, -17.58, -0.1565, 0.4749, 23.7438, -7.825, -7.825
341.76, (122.056,113.033), 342.8294, 100.0, 342.8293513425498, -18.24, -18.24, -0.1565, 0.4749, 23.7438, -7.825, -7.825
341.76, (123.956,112.407), 342.8293, 100.0, 342.829334874191, -18.24, -18.24, -0.1565, 0.4749, 23.7438, -7.825, -7.825
341.76, (125.855,111.781), 342.8293, 100.0, 342.8293216771981, -18.24, -18.24, -0.1565, 0.4749, 23.7438, -7.825, -7.825
341.76, (127.755,111.155), 342.8293, 100.0, 342.8293046814314, -18.24, -18.24, -0.1565, 0.4749, 23.7438, -7.825, -7.825
334.56, (129.619,110.437), 335.6293, 100.0, 335.6292832506223, -24.3, -24.3, -0.2148, 0.4515, 22.5759, -10.7391, -10.7391
325.08, (131.174,109.533), 326.1493, 100.0, 326.74926745724594, -33.24, -33.24, -0.2819, 0.413, 20.6475, -14.0954, -14.0954
326.82, (132.784,108.348), 327.8892, 100.0, 327.46924706564147, -34.62, -34.62, -0.2767, 0.4165, 20.823, -13.8348, -13.8348
327.66, (134.341,107.446), 328.7292, 100.0, 329.74923535680466, -30.24, -30.24, -0.2599, 0.4271, 21.3569, -12.9954, -12.9954
321.72, (135.953,106.265), 322.7892, 100.0, 322.7892196862156, -38.28, -38.28, -0.3098, 0.3925, 19.6248, -15.4876, -15.4876
325.32, (137.535,105.041), 326.3892, 100.0, 325.6691963316069, -36.42, -36.42, -0.2896, 0.4076, 20.3782, -14.482, -14.482
331.92, (139.26,104.033), 332.9892, 100.0, 332.9891827173472, -28.08, -28.08, -0.2354, 0.4411, 22.0573, -11.7676, -11.7676
324.96, (140.98,103.016), 326.0292, 100.0, 326.0291720282503, -33.66, -33.66, -0.2871, 0.4094, 20.4688, -14.3537, -14.3537
328.26, (142.439,101.962), 329.3292, 100.0, 328.24915672446974, -33.9, -33.9, -0.271, 0.4202, 21.0094, -13.55, -13.55
331.98, (144.189,100.996), 333.0491, 100.0, 333.0491402652946, -28.02, -28.02, -0.2349, 0.4414, 22.0696, -11.7445, -11.7445
331.98, (145.955,100.056), 333.0491, 100.0, 333.04913022963586, -28.02, -28.02, -0.2349, 0.4414, 22.0696, -11.7445, -11.7445
324.6, (147.672,99.036), 325.6691, 100.0, 325.9691119147873, -33.96, -33.96, -0.2875, 0.4091, 20.4537, -14.3751, -14.3751
321.78, (149.093,97.93), 322.8491, 100.0, 322.8490967929426, -38.22, -38.22, -0.3093, 0.3928, 19.641, -15.4671, -15.4671
321.78, (150.664,96.693), 322.8491, 100.0, 322.8490804332351, -38.22, -38.22, -0.3093, 0.3928, 19.641, -15.4671, -15.4671
330.84, (152.323,95.58), 331.9091, 100.0, 331.909063531032, -30.18, -30.18, -0.2436, 0.4366, 21.8316, -12.1813, -12.1813
332.64, (153.911,94.732), 333.709, 100.0, 332.9890450335119, -28.08, -28.08, -0.2354, 0.4411, 22.0573, -11.7676, -11.7676
342.24, (155.755,93.966), 343.309, 100.0, 342.94902762673297, -18.84, -18.84, -0.1555, 0.4752, 23.7602, -7.7752, -7.7752
352.08, (157.701,93.516), 353.149, 100.0, 352.78900678991556, -9.36, -9.36, -0.072, 0.4948, 24.7394, -3.6003, -3.6003
349.5, (159.68,93.232), 350.569, 100.0, 350.5689873955243, -9.54, -9.54, -0.0911, 0.4916, 24.5814, -4.5559, -4.5559
342.42, (161.415,92.757), 343.489, 100.0, 343.4889734295372, -17.58, -17.58, -0.151, 0.4766, 23.8324, -7.5509, -7.5509
342.42, (163.322,92.152), 343.4889, 100.0, 343.4889490114097, -17.58, -17.58, -0.151, 0.4766, 23.8324, -7.5509, -7.5509
342.42, (165.228,91.548), 343.4889, 100.0, 343.4889297959359, -17.58, -17.58, -0.151, 0.4766, 23.8324, -7.5509, -7.5509
342.72, (167.135,90.944), 343.7889, 100.0, 343.48891152028796, -17.58, -17.58, -0.151, 0.4766, 23.8324, -7.5509, -7.5509
352.5, (168.891,90.559), 353.5689, 100.0, 352.8488998520788, -9.24, -9.24, -0.0715, 0.4949, 24.7432, -3.5744, -3.5744
345.84, (170.862,90.229), 346.9089, 100.0, 347.6888880865902, -12.36, -12.36, -0.1157, 0.4864, 24.3214, -5.7852, -5.7852
347.04, (172.785,89.68), 348.1089, 100.0, 347.4488688518197, -14.34, -14.34, -0.1177, 0.4859, 24.297, -5.887, -5.887
349.38, (174.757,89.354), 350.4489, 100.0, 350.8088520010947, -9.24, -9.24, -0.0891, 0.492, 24.6002, -4.4529, -4.4529
342.84, (176.686,88.83), 343.9088, 100.0, 343.90883169695957, -17.16, -17.16, -0.1475, 0.4777, 23.8871, -7.376, -7.376
342.84, (178.406,88.299), 343.9088, 100.0, 343.9088178794116, -17.16, -17.16, -0.1475, 0.4777, 23.8871, -7.376, -7.376
342.84, (180.317,87.709), 343.9088, 100.0, 343.90879663731045, -17.16, -17.16, -0.1475, 0.4777, 23.8871, -7.376, -7.376
342.84, (182.037,87.177), 343.9088, 100.0, 343.908786511797, -17.16, -17.16, -0.1475, 0.4777, 23.8871, -7.376, -7.376
342.84, (183.948,86.587), 343.9088, 100.0, 343.9087720824698, -17.16, -17.16, -0.1475, 0.4777, 23.8871, -7.376, -7.376
342.84, (185.859,85.997), 343.9088, 100.0, 343.9087611260743, -17.16, -17.16, -0.1475, 0.4777, 23.8871, -7.376, -7.376
342.84, (187.77,85.407), 343.9087, 100.0, 343.9087442428101, -17.16, -17.16, -0.1475, 0.4777, 23.8871, -7.376, -7.376
342.84, (189.681,84.817), 343.9087, 100.0, 343.9087186407924, -17.16, -17.16, -0.1475, 0.4777, 23.8871, -7.376, -7.376
342.84, (191.592,84.227), 343.9087, 100.0, 343.9086988757777, -17.16, -17.16, -0.1475, 0.4777, 23.8871, -7.376, -7.376
342.84, (193.311,83.696), 343.9087, 100.0, 343.9086780892637, -17.16, -17.16, -0.1475, 0.4777, 23.8871, -7.376, -7.376
342.84, (195.222,83.106), 343.9087, 100.0, 343.9086655261014, -17.16, -17.16, -0.1475, 0.4777, 23.8871, -7.376, -7.376
342.84, (197.133,82.516), 343.9086, 100.0, 343.9086495321896, -17.16, -17.16, -0.1475, 0.4777, 23.8871, -7.376, -7.376
342.84, (199.044,81.926), 343.9086, 100.0, 343.9086373742754, -17.16, -17.16, -0.1475, 0.4777, 23.8871, -7.376, -7.376
342.84, (200.764,81.395), 343.9086, 100.0, 343.9086202776086, -17.16, -17.16, -0.1475, 0.4777, 23.8871, -7.376, -7.376
351.6, (202.704,80.918), 352.6686, 100.0, 351.46860380653135, -10.32, -10.32, -0.0834, 0.493, 24.6499, -4.1692, -4.1692
353.1, (204.689,80.671), 354.1686, 100.0, 354.1685865948262, -6.9, -6.9, -0.0601, 0.4964, 24.8189, -3.0034, -3.0034
351.6, (206.674,80.425), 352.6686, 100.0, 352.66857302503564, -7.26, -7.26, -0.073, 0.4946, 24.7318, -3.6521, -3.6521
343.08, (208.614,79.951), 344.1486, 100.0, 344.14855843339257, -16.92, -16.92, -0.1455, 0.4784, 23.9178, -7.2759, -7.2759
334.2, (210.295,79.311), 335.2685, 100.0, 335.9885477847226, -23.94, -23.94, -0.2119, 0.4529, 22.6429, -10.5971, -10.5971
341.46, (212.125,78.509), 342.5285, 100.0, 341.92853201935503, -20.28, -20.28, -0.1639, 0.4724, 23.618, -8.1969, -8.1969
350.82, (214.062,78.019), 351.8885, 100.0, 351.46851336835135, -10.92, -10.92, -0.0834, 0.493, 24.6499, -4.1692, -4.1692
353.4, (216.047,77.778), 354.4685, 100.0, 354.46849805460835, -6.6, -6.6, -0.0575, 0.4967, 24.8343, -2.8734, -2.8734
353.4, (218.034,77.548), 354.4685, 100.0, 354.46848004796334, -6.6, -6.6, -0.0575, 0.4967, 24.8343, -2.8734, -2.8734
1.62, (219.829,77.445), 2.6885, 100.0, 2.028468359588437, -0.36, -0.36, 0.0084, 0.4999, 24.9965, 0.4189, 0.4189
3.42, (221.826,77.557), 4.4885, 100.0, 4.488456123844634, 3.42, 3.42, 0.0298, 0.4991, 24.9555, 1.4914, 1.4914
8.28, (223.818,77.718), 9.3484, 100.0, 8.988438514401965, 6.9, 6.9, 0.0689, 0.4952, 24.7615, 3.4448, 3.4448
13.68, (225.577,78.097), 14.7484, 100.0, 14.748423322208176, 13.68, 13.68, 0.1182, 0.4858, 24.2908, 5.9125, 5.9125
13.68, (227.52,78.57), 14.7484, 100.0, 14.748410434931964, 13.68, 13.68, 0.1182, 0.4858, 24.2908, 5.9125, 5.9125
13.68, (229.464,79.043), 14.7484, 100.0, 14.748392315306713, 13.68, 13.68, 0.1182, 0.4858, 24.2908, 5.9125, 5.9125
13.68, (231.407,79.516), 14.7484, 100.0, 14.748377287036629, 13.68, 13.68, 0.1182, 0.4858, 24.2908, 5.9125, 5.9125
18.24, (233.148,79.971), 19.3084, 100.0, 18.648361612359533, 16.2, 16.2, 0.151, 0.4766, 23.8324, 7.5509, 7.5509
23.76, (235,80.723), 24.8283, 100.0, 24.828343573405206, 23.76, 23.76, 0.2015, 0.4576, 22.881, 10.0727, 10.0727
23.76, (236.83,81.529), 24.8283, 100.0, 24.828330116130566, 23.76, 23.76, 0.2015, 0.4576, 22.881, 10.0727, 10.0727
23.76, (238.661,82.335), 24.8283, 100.0, 24.82831536533222, 23.76, 23.76, 0.2015, 0.4576, 22.881, 10.0727, 10.0727
23.76, (240.491,83.14), 24.8283, 100.0, 24.828303656783557, 23.76, 23.76, 0.2015, 0.4576, 22.881, 10.0727, 10.0727
21.96, (242.14,83.862), 23.0283, 100.0, 23.808289115555542, 23.76, 23.76, 0.1933, 0.4611, 23.0567, 9.6638, 9.6638
13.68, (244.05,84.449), 14.7483, 100.0, 14.748270398506573, 13.68, 13.68, 0.1182, 0.4858, 24.2908, 5.9125, 5.9125
13.68, (245.993,84.922), 14.7483, 100.0, 14.748258884022086, 13.68, 13.68, 0.1182, 0.4858, 24.2908, 5.9125, 5.9125
13.68, (247.742,85.348), 14.7482, 100.0, 14.748243591522622, 13.68, 13.68, 0.1182, 0.4858, 24.2908, 5.9125, 5.9125
17.64, (249.679,85.843), 18.7082, 100.0, 17.988227306053886, 15.84, 15.84, 0.1455, 0.4784, 23.9178, 7.2759, 7.2759
24.84, (251.533,86.59), 25.9082, 100.0, 25.54821456555273, 23.76, 23.76, 0.2072, 0.4551, 22.7526, 10.3594, 10.3594
33.84, (253.264,87.588), 34.9082, 100.0, 34.90819863311873, 33.84, 33.84, 0.2784, 0.4153, 20.7649, 13.9219, 13.9219
33.84, (254.759,88.59), 34.9082, 100.0, 34.90818154813653, 33.84, 33.84, 0.2784, 0.4153, 20.7649, 13.9219, 13.9219
33.84, (256.42,89.704), 34.9082, 100.0, 34.90816386958923, 33.84, 33.84, 0.2784, 0.4153, 20.7649, 13.9219, 13.9219
27, (258.129,90.739), 28.0681, 100.0, 28.068149334315724, 28.2, 28.2, 0.227, 0.4455, 22.2752, 11.3498, 11.3498
23.64, (259.772,91.474), 24.7081, 100.0, 24.70813415928032, 23.64, 23.64, 0.2005, 0.458, 22.9021, 10.0247, 10.0247
