Rotation, Location, Gyro Rotation, Sensor Optical Flow, Battery Level, Yaw, Pitch, Roll, Vy, Vx, AccX, AccY
0, (0.14,0), 360, 100.0, 359.9999965237318, 0, 0, 0, 0.034, 1.7, 0, 0
0, (0.144,0), 360, 100.0, 359.9999855911974, 0, 0, 0, 0, 0, 0, 0
0, (0.144,0), 360, 100.0, 359.9999644672885, 0, 0, 0, 0, 0, 0, 0
0, (0.144,0), 360, 100.0, 359.9999599177232, 0, 0, 0, 0, 0, 0, 0
0, (0.144,0), 359.9999, 100.0, 359.99994461987035, 0, 0, 0, 0, 0, 0, 0
0, (0.144,0), 359.9999, 100.0, 359.99992962920555, 0, 0, 0, 0, 0, 0, 0
0, (0.144,0), 359.9999, 100.0, 359.9999100971604, 0, 0, 0, 0, 0, 0, 0
0, (0.144,0), 359.9999, 100.0, 359.9998941598472, 0, 0, 0, 0, 0, 0, 0
0, (0.144,0), 359.9999, 100.0, 359.9998780780996, 0, 0, 0, 0, 0, 0, 0
0, (0.144,0), 359.9999, 100.0, 359.99986598562515, 0, 0, 0, 0, 0, 0, 0
0, (0.144,0), 359.9998, 100.0, 359.9998471234232, 0, 0, 0, 0, 0, 0, 0
0, (0.144,0), 359.9998, 100.0, 359.99982751132234, 0, 0, 0, 0, 0, 0, 0
0, (0.144,0), 359.9998, 100.0, 359.99981481698575, 0, 0, 0, 0, 0, 0, 0
0, (0.144,0), 359.9998, 100.0, 359.99979806107, 0, 0, 0, 0, 0, 0, 0
0, (0.144,0), 359.9998, 100.0, 359.9997825275659, 0, 0, 0, 0, 0, 0, 0
0, (0.144,0), 359.9998, 100.0, 359.999772219305, 0, 0, 0, 0, 0, 0, 0
0, (0.144,0), 359.9998, 100.0, 359.99975702047107, 0, 0, 0, 0, 0, 0, 0
0, (0.144,0), 359.9997, 100.0, 359.99974584278254, 0, 0, 0, 0, 0, 0, 0
0, (0.144,0), 359.9997, 100.0, 359.999728888557, 0, 0, 0, 0, 0, 0, 0
0, (0.144,0), 359.9997, 100.0, 359.9997100102814, 0, 0, 0, 0, 0, 0, 0
0, (0.144,0), 359.9997, 100.0, 359.99969313370667, 0, 0, 0, 0, 0, 0, 0
0, (0.144,0), 359.9997, 100.0, 359.9996766185399, 0, 0, 0, 0, 0, 0, 0
9.24, (0.394,0.026), 8.5197, 100.0, 7.7396581554822355, 7.32, 7.32, 0.0207, 0.1395, 6.9733, 1.0372, 1.0372
2.1, (1.352,0.135), 1.3796, 100.0, 1.859641317096771, 3.36, 3.36, 0.0144, 0.3187, 15.9338, 0.718, 0.718
7.08, (2.834,0.207), 6.3603, 100.0, 5.700343803393799, 5.22, 5.22, 0.0545, 0.4839, 24.1973, 2.7227, 2.7227
2.76, (4.817,0.457), 2.0403, 100.0, 2.760333174701291, 4.56, 4.56, 0.0304, 0.4991, 24.9539, 1.5175, 1.5175
353.46, (6.813,0.387), 352.7397, 100.0, 352.7396579957879, -5.52, -5.52, -0.0569, 0.4967, 24.8373, -2.8474, -2.8474
355.92, (8.595,0.135), 355.1996, 100.0, 354.17964806930564, -6.12, -6.12, -0.0444, 0.498, 24.901, -2.2224, -2.2224
353.16, (10.591,0.034), 352.4396, 100.0, 353.45962884383675, -4.68, -4.68, -0.0507, 0.4974, 24.8711, -2.5351, -2.5351
342.9, (12.546,-0.373), 342.1796, 100.0, 342.8396119061874, -15.36, -15.36, -0.1415, 0.4796, 23.9779, -7.0753, -7.0753
342.42, (14.242,-0.977), 341.6996, 100.0, 341.0395961383815, -19.2, -19.2, -0.1565, 0.4749, 23.7438, -7.825, -7.825
332.34, (16.087,-1.741), 331.6196, 100.0, 331.9795792466412, -26.34, -26.34, -0.2293, 0.4443, 22.2154, -11.4662, -11.4662
322.62, (17.781,-2.797), 321.8996, 100.0, 322.61955812435383, -35.88, -35.88, -0.2985, 0.4011, 20.0548, -14.9266, -14.9266
312.9, (19.264,-4.136), 312.1795, 100.0, 312.17954863510283, -45.72, -45.72, -0.3663, 0.3404, 17.018, -18.3136, -18.3136
302.58, (20.363,-5.558), 301.8595, 100.0, 302.5795323359906, -55.56, -55.56, -0.4179, 0.2745, 13.7256, -20.8952, -20.8952
297.3, (21.306,-7.32), 296.5795, 100.0, 296.21951042829767, -64.14, -64.14, -0.4457, 0.2265, 11.3264, -22.287, -22.287
303.3, (22.371,-9.011), 302.5795, 100.0, 302.5794928068365, -55.62, -55.62, -0.4179, 0.2745, 13.7256, -20.8952, -20.8952
295.92, (23.215,-10.599), 295.1995, 100.0, 294.4194809831293, -65.22, -65.22, -0.4526, 0.2124, 10.6208, -22.6318, -22.6318
304.92, (24.244,-12.311), 304.1995, 100.0, 304.19946086183916, -55.14, -55.14, -0.41, 0.2862, 14.3108, -20.4988, -20.4988
315.18, (25.542,-13.83), 314.4594, 100.0, 314.45944888528396, -45.9, -45.9, -0.3524, 0.3547, 17.7331, -17.622, -17.622
325.68, (26.931,-14.971), 324.9594, 100.0, 324.2394403557021, -36.18, -36.18, -0.2871, 0.4094, 20.4688, -14.3537, -14.3537
335.64, (28.67,-15.954), 334.9194, 100.0, 334.4994223804266, -25.92, -25.92, -0.2096, 0.454, 22.6981, -10.4784, -10.4784
346.08, (30.56,-16.597), 345.3594, 100.0, 345.05940488631995, -15.06, -15.06, -0.1228, 0.4847, 24.234, -6.1411, -6.1411
356.04, (32.336,-16.878), 355.3194, 100.0, 354.65939303842475, -5.82, -5.82, -0.0403, 0.4984, 24.9188, -2.0137, -2.0137
6.36, (34.333,-16.843), 5.6394, 100.0, 4.919379408515995, 4.62, 4.62, 0.0491, 0.4976, 24.879, 2.4569, 2.4569
16.5, (36.29,-16.445), 15.7794, 100.0, 15.419362587888141, 15.12, 15.12, 0.139, 0.4803, 24.0146, 6.9496, 6.9496
26.82, (37.963,-15.787), 26.0993, 100.0, 24.959347387731373, 24.66, 24.66, 0.2167, 0.4506, 22.5307, 10.8336, 10.8336
35.94, (39.667,-14.744), 35.2193, 100.0, 34.79932819073112, 34.32, 34.32, 0.2905, 0.407, 20.3478, 14.5247, 14.5247
43.14, (41.182,-13.441), 42.4193, 100.0, 42.41930756828555, 44.34, 44.34, 0.3419, 0.3648, 18.2421, 17.0946, 17.0946
33.18, (42.602,-12.339), 32.4593, 100.0, 33.11929203110922, 34.2, 34.2, 0.2784, 0.4153, 20.7649, 13.9219, 13.9219
23.22, (44.368,-11.405), 22.4993, 100.0, 22.49927099312174, 23.94, 23.94, 0.1971, 0.4595, 22.9749, 9.8566, 9.8566
13.08, (46.076,-10.845), 12.3593, 100.0, 13.13925239438243, 14.94, 14.94, 0.1198, 0.4854, 24.2721, 5.9888, 5.9888
13.62, (48.036,-10.449), 12.8992, 100.0, 13.259237894377385, 12.96, 12.96, 0.1208, 0.4852, 24.2595, 6.0396, 6.0396
3.66, (50.013,-10.167), 2.9392, 100.0, 2.939220110599277, 4.32, 4.32, 0.0319, 0.499, 24.949, 1.5959, 1.5959
354.18, (51.811,-10.197), 353.2208, 100.0, 353.88077977086357, -4.08, -4.08, -0.045, 0.498, 24.8987, -2.2484, -2.2484
344.22, (53.774,-10.566), 343.2608, 100.0, 343.6207610532917, -14.28, -14.28, -0.1329, 0.482, 24.1001, -6.6473, -6.6473
334.44, (55.458,-11.195), 333.4808, 100.0, 334.5607502598422, -23.76, -23.76, -0.2072, 0.4551, 22.7526, -10.3594, -10.3594
324.42, (57.181,-12.206), 323.4607, 100.0, 324.18073511154205, -34.14, -34.14, -0.2858, 0.4103, 20.5138, -14.2893, -14.2893
330.9, (58.836,-13.326), 329.9407, 100.0, 329.28071932108674, -30.84, -30.84, -0.2482, 0.4341, 21.7028, -12.4092, -12.4092
324.72, (60.389,-14.233), 323.7607, 100.0, 324.9007042999626, -33, -33, -0.2806, 0.4138, 20.6917, -14.0304, -14.0304
326.4, (61.991,-15.43), 325.4407, 100.0, 325.0806909381679, -35.34, -35.34, -0.2793, 0.4147, 20.7357, -13.9653, -13.9653
335.34, (63.739,-16.397), 334.3807, 100.0, 334.3806696157362, -25.74, -25.74, -0.2086, 0.4544, 22.72, -10.4308, -10.4308
344.4, (65.43,-17.008), 343.4407, 100.0, 342.6606556506378, -17.22, -17.22, -0.141, 0.4797, 23.9853, -7.0502, -7.0502
347.04, (67.386,-17.42), 346.0806, 100.0, 346.80064267619275, -11.22, -11.22, -0.106, 0.4886, 24.4317, -5.3002, -5.3002
342.6, (69.295,-18.013), 341.6406, 100.0, 340.98062436732135, -19.14, -19.14, -0.155, 0.4754, 23.7683, -7.7503, -7.7503
347.22, (71.243,-18.462), 346.2606, 100.0, 346.7406062745657, -11.16, -11.16, -0.1065, 0.4885, 24.4261, -5.3258, -5.3258
340.8, (72.958,-19.003), 339.8406, 100.0, 338.76059278758737, -20.58, -20.58, -0.1733, 0.469, 23.4502, -8.6652, -8.6652
349.74, (74.891,-19.505), 348.7806, 100.0, 348.12057450523844, -10.86, -10.86, -0.0947, 0.4909, 24.5473, -4.736, -4.736
358.98, (76.881,-19.68), 358.0206, 100.0, 357.66055503741103, -1.38, -1.38, -0.012, 0.4999, 24.9927, -0.6021, -0.6021
7.38, (79.07,-19.493), 6.4205, 100.0, 6.84053825597931, 8.88, 8.88, 0.0679, 0.4954, 24.7687, 3.3929, 3.3929
8.64, (80.862,-19.326), 7.6805, 100.0, 6.8405247870891195, 6.66, 6.66, 0.0679, 0.4954, 24.7687, 3.3929, 3.3929
17.76, (82.807,-18.872), 16.8005, 100.0, 16.3805047819645, 16.26, 16.26, 0.149, 0.4773, 23.8638, 7.451, 7.451
18.66, (84.49,-18.235), 17.7005, 100.0, 18.420495089955807, 20.46, 20.46, 0.1659, 0.4717, 23.5835, 8.2958, 8.2958
9.36, (86.431,-17.763), 8.4005, 100.0, 8.520482100126632, 9.84, 9.84, 0.0824, 0.4932, 24.6586, 4.1176, 4.1176
19.2, (88.174,-17.32), 18.2405, 100.0, 17.520469509314584, 17.4, 17.4, 0.1585, 0.4742, 23.7109, 7.9243, 7.9243
28.56, (90.01,-16.534), 27.6005, 100.0, 26.880451621407353, 26.82, 26.82, 0.2335, 0.4421, 22.1064, 11.6751, 11.6751
38.4, (92.005,-15.208), 37.4404, 100.0, 37.44042809042442, 38.76, 38.76, 0.3106, 0.3918, 19.5923, 15.5287, 15.5287
56.16, (94.83,-11.868), 55.2004, 100.0, 55.20039026421591, 57.24, 57.24, 0.4153, 0.2784, 13.9219, 20.7649, 20.7649
45.84, (95.959,-10.469), 44.8804, 100.0, 45.960376900211415, 47.94, 47.94, 0.3652, 0.3415, 17.0755, 18.26, 18.26
35.94, (97.458,-9.149), 34.9804, 100.0, 36.12035576326494, 38.16, 38.16, 0.3015, 0.3989, 19.9449, 15.0732, 15.0732
29.28, (99.164,-8.108), 28.3203, 100.0, 28.320335906354046, 28.2, 28.2, 0.2445, 0.4361, 21.806, 12.227, 12.227
24.72, (100.737,-7.236), 23.7603, 100.0, 24.4203186223263, 26.34, 26.34, 0.2143, 0.4517, 22.5871, 10.7155, 10.7155
28.86, (102.553,-6.401), 27.9003, 100.0, 27.540297185350905, 27.3, 27.3, 0.2386, 0.4394, 21.9704, 11.929, 11.929
37.62, (104.044,-5.397), 36.6603, 100.0, 37.020278118918775, 37.2, 37.2, 0.3077, 0.3941, 19.7056, 15.3847, 15.3847
27.24, (105.728,-4.324), 26.2803, 100.0, 27.00026515683278, 29.04, 29.04, 0.2344, 0.4416, 22.0819, 11.7214, 11.7214
18.24, (107.21,-3.726), 17.2803, 100.0, 17.280253080014234, 18.24, 18.24, 0.1565, 0.4749, 23.7438, 7.825, 7.825
28.38, (108.861,-3.014), 27.4202, 100.0, 26.700242255412398, 26.46, 26.46, 0.2321, 0.4429, 22.1429, 11.6056, 11.6056
38.28, (110.526,-1.912), 37.3202, 100.0, 37.32022839842265, 37.2, 37.2, 0.3098, 0.3925, 19.6248, 15.4876, 15.4876
30.3, (112.197,-0.816), 29.3402, 100.0, 28.98021415560847, 29.58, 29.58, 0.2495, 0.4333, 21.6637, 12.4773, 12.4773
39.06, (113.664,0.222), 38.1002, 100.0, 38.46019703626756, 38.34, 38.34, 0.3175, 0.3863, 19.3128, 15.875, 15.875
28.62, (115.321,1.338), 27.6602, 100.0, 28.32017497242953, 30.42, 30.42, 0.2445, 0.4361, 21.806, 12.227, 12.227
19.62, (117.138,2.168), 18.6602, 100.0, 19.080156682085637, 20.82, 20.82, 0.1713, 0.4697, 23.4863, 8.5669, 8.5669
26.04, (118.815,2.818), 25.0801, 100.0, 24.060144137481693, 23.94, 23.94, 0.2115, 0.4531, 22.654, 10.5734, 10.5734
36.12, (120.528,3.845), 35.1601, 100.0, 34.86012509851082, 34.68, 34.68, 0.2926, 0.4054, 20.2715, 14.631, 14.631
30.18, (122.173,4.978), 29.2201, 100.0, 29.220107610576793, 31.2, 31.2, 0.2514, 0.4322, 21.6113, 12.568, 12.568
21.12, (123.792,5.761), 20.1601, 100.0, 20.82008805002872, 22.92, 22.92, 0.1855, 0.4643, 23.2154, 9.2761, 9.2761
11.7, (125.708,6.33), 10.7401, 100.0, 11.100068967343216, 13.14, 13.14, 0.1045, 0.489, 24.4482, 5.2234, 5.2234
1.62, (127.493,6.545), 0.6601, 100.0, 1.800051727476363, 3.84, 3.84, 0.0241, 0.4994, 24.971, 1.2038, 1.2038
352.44, (129.489,6.461), 352.68, 100.0, 353.10004357649734, -6, -6, -0.0621, 0.4961, 24.8061, -3.1074, -3.1074
342.3, (131.437,6.021), 342.54, 100.0, 342.90002883304385, -16.2, -16.2, -0.149, 0.4773, 23.8638, -7.451, -7.451
346.74, (133.345,5.428), 346.98, 100.0, 346.98001789806943, -14.4, -14.4, -0.1147, 0.4867, 24.3335, -5.7343, -5.7343
349.02, (135.121,5.135), 349.26, 100.0, 350.3400039442226, -8.82, -8.82, -0.086, 0.4926, 24.6277, -4.2982, -4.2982
338.82, (137.041,4.589), 339.06, 100.0, 339.4799904245685, -19.74, -19.74, -0.1772, 0.4675, 23.3768, -8.8614, -8.8614
329.22, (138.66,3.807), 329.46, 100.0, 330.23997726749866, -28.98, -28.98, -0.25, 0.433, 21.6506, -12.5, -12.5
324.6, (140.3,2.664), 324.84, 100.0, 324.47995790491046, -36.84, -36.84, -0.2922, 0.4057, 20.2868, -14.6098, -14.6098
319.38, (141.912,1.483), 319.6199, 100.0, 320.0399471316816, -39.06, -39.06, -0.3227, 0.3819, 19.0949, -16.1364, -16.1364
324.54, (143.292,0.33), 324.7799, 100.0, 324.11993174030914, -37.26, -37.26, -0.2947, 0.4039, 20.1946, -14.737, -14.737
331.2, (145.01,-0.692), 331.4399, 100.0, 331.43991774091864, -27.78, -27.78, -0.2409, 0.4382, 21.9077, -12.0438, -12.0438
321.06, (146.496,-1.703), 321.2999, 100.0, 321.65990510695104, -37.5, -37.5, -0.3118, 0.3909, 19.5435, -15.5902, -15.5902
311.04, (147.927,-3.096), 311.2799, 100.0, 311.2798885140186, -47.94, -47.94, -0.3771, 0.3283, 16.4146, -18.8563, -18.8563
316.32, (149.122,-4.441), 316.5599, 100.0, 315.47987384740605, -45.84, -45.84, -0.3521, 0.355, 17.7516, -17.6035, -17.6035
311.64, (150.557,-5.831), 311.8799, 100.0, 312.23985779511463, -46.92, -46.92, -0.3716, 0.3346, 16.7283, -18.5786, -18.5786
321.48, (152.006,-7.206), 321.7198, 100.0, 321.35984347578847, -39.96, -39.96, -0.3138, 0.3892, 19.4616, -15.6923, -15.6923
329.94, (153.502,-8.204), 330.1798, 100.0, 330.53983181342477, -30.54, -30.54, -0.2477, 0.4343, 21.7158, -12.3865, -12.3865
319.98, (155.139,-9.349), 320.2198, 100.0, 320.6398212623588, -38.4, -38.4, -0.3187, 0.3853, 19.2628, -15.9356, -15.9356
309.9, (156.555,-10.757), 310.1398, 100.0, 310.85980947037444, -48.66, -48.66, -0.3795, 0.3255, 16.276, -18.9761, -18.9761
299.7, (157.693,-12.398), 299.9398, 100.0, 300.23979366040214, -58.98, -58.98, -0.433, 0.25, 12.5, -21.6506, -21.6506
303.6, (158.687,-14.132), 303.8398, 100.0, 303.83978074706647, -57.54, -57.54, -0.4165, 0.2767, 13.8348, -20.823, -20.823
310.98, (159.775,-15.565), 311.2198, 100.0, 310.6197621969408, -50.76, -50.76, -0.3809, 0.3239, 16.1964, -19.0441, -19.0441
315.72, (161.167,-17), 315.9597, 100.0, 315.5997449563127, -45.72, -45.72, -0.3513, 0.3558, 17.7884, -17.5662, -17.5662
321.9, (162.552,-18.148), 322.1397, 100.0, 323.27972692782987, -36.24, -36.24, -0.3006, 0.3995, 19.9764, -15.0314, -15.0314
326.76, (164.134,-19.369), 326.9997, 100.0, 326.57971420494346, -35.22, -35.22, -0.2771, 0.4162, 20.8085, -13.8566, -13.8566
325.86, (165.84,-20.413), 326.0997, 100.0, 326.7596946936705, -32.46, -32.46, -0.2758, 0.417, 20.852, -13.7911, -13.7911
324.6, (167.272,-21.502), 324.8397, 100.0, 324.17968284768966, -37.08, -37.08, -0.2943, 0.4042, 20.21, -14.7158, -14.7158
334.14, (168.99,-22.521), 334.3797, 100.0, 333.9596649190063, -27.36, -27.36, -0.2214, 0.4483, 22.416, -11.069, -11.069
343.14, (170.855,-23.237), 343.3797, 100.0, 343.0196525666212, -17.88, -17.88, -0.148, 0.4776, 23.8794, -7.401, -7.401
348.6, (172.809,-23.658), 348.8396, 100.0, 348.83963971960014, -10.32, -10.32, -0.0988, 0.4901, 24.5068, -4.9414, -4.9414
346.26, (174.545,-24.13), 346.4996, 100.0, 345.83961673193846, -15.84, -15.84, -0.1243, 0.4843, 24.2146, -6.2172, -6.2172
348.9, (176.513,-24.482), 349.1396, 100.0, 349.9196001522807, -9.18, -9.18, -0.0896, 0.4919, 24.5956, -4.4786, -4.4786
352.38, (178.472,-24.881), 352.6196, 100.0, 352.61958623959674, -9.06, -9.06, -0.0663, 0.4956, 24.7792, -3.3151, -3.3151
350.7, (180.457,-25.118), 350.9396, 100.0, 350.93957377580847, -9.36, -9.36, -0.0808, 0.4934, 24.6714, -4.0401, -4.0401
1.02, (182.25,-25.246), 1.2596, 100.0, 0.23956002617120012, -1.08, -1.08, 0, 0.5, 25, 0, 0
10.32, (184.237,-25.044), 10.5595, 100.0, 10.559543134082153, 9.54, 9.54, 0.0896, 0.4919, 24.5956, 4.4786, 4.4786
0.3, (186.226,-24.857), 0.5395, 100.0, 0.959529546484947, 1.74, 1.74, 0.0063, 0.5, 24.998, 0.3142, 0.3142
8.7, (188.02,-24.751), 9.3005, 100.0, 8.220455405180061, 6.54, 6.54, 0.0663, 0.4956, 24.7792, 3.3151, 3.3151
18.84, (189.965,-24.293), 19.4404, 100.0, 18.78043720511019, 16.8, 16.8, 0.156, 0.475, 23.752, 7.8001, 7.8001
19.8, (191.867,-23.678), 20.4004, 100.0, 20.040423672484753, 18.3, 18.3, 0.1664, 0.4715, 23.5748, 8.3205, 8.3205
28.92, (193.506,-22.938), 29.5204, 100.0, 28.5004044966513, 26.52, 26.52, 0.234, 0.4419, 22.0941, 11.6982, 11.6982
32.4, (195.19,-21.861), 33.0004, 100.0, 33.72039350874325, 33.96, 33.96, 0.2732, 0.4188, 20.9382, 13.6599, 13.6599
22.14, (196.964,-20.943), 22.7404, 100.0, 23.460376354563238, 23.64, 23.64, 0.1942, 0.4607, 23.0364, 9.712, 9.712
26.34, (198.815,-20.189), 26.9404, 100.0, 26.52036027604481, 24.78, 24.78, 0.2186, 0.4497, 22.4851, 10.9279, 10.9279
36.24, (200.517,-19.144), 36.8404, 100.0, 36.84035243177474, 35.16, 35.16, 0.2956, 0.4033, 20.1637, 14.7792, 14.7792
32.28, (201.96,-18.07), 32.8803, 100.0, 33.96033826050521, 34.08, 34.08, 0.2749, 0.4176, 20.8808, 13.7474, 13.7474
22.62, (203.731,-17.146), 23.2203, 100.0, 23.58032188529592, 24.06, 24.06, 0.1952, 0.4603, 23.016, 9.7602, 9.7602
12.6, (205.638,-16.552), 13.2003, 100.0, 13.560305995211207, 13.68, 13.68, 0.1121, 0.4873, 24.3632, 5.6068, 5.6068
2.64, (207.42,-16.313), 3.2403, 100.0, 3.960295557926901, 4.5, 4.5, 0.0293, 0.4991, 24.957, 1.4652, 1.4652
352.8, (209.417,-16.381), 353.7597, 100.0, 354.4797054511582, -5.4, -5.4, -0.0564, 0.4968, 24.8403, -2.8214, -2.8214
355.08, (211.394,-16.675), 356.0397, 100.0, 355.679693064033, -6.42, -6.42, -0.046, 0.4979, 24.8939, -2.3006, -2.3006
354.12, (213.191,-16.763), 355.3203, 100.0, 356.1003077294167, -4.08, -4.08, -0.0444, 0.498, 24.901, -2.2224, -2.2224
353.04, (215.166,-17.076), 354.2403, 100.0, 353.5202928128692, -8.82, -8.82, -0.0668, 0.4955, 24.7757, -3.341, -3.341
354.78, (217.161,-17.21), 355.9803, 100.0, 356.3402740411171, -3.78, -3.78, -0.0424, 0.4982, 24.9101, -2.118, -2.118
345, (219.125,-17.57), 346.2003, 100.0, 346.20025814804285, -13.92, -13.92, -0.1294, 0.483, 24.1481, -6.4705, -6.4705
339.78, (220.819,-18.175), 340.9802, 100.0, 340.2002414625219, -22.14, -22.14, -0.1792, 0.4668, 23.3395, -8.9592, -8.9592
345.3, (222.743,-18.717), 346.5002, 100.0, 346.86022606467134, -12.84, -12.84, -0.1238, 0.4844, 24.2211, -6.1919, -6.1919
337.26, (224.439,-19.314), 338.4602, 100.0, 338.04020808637915, -22.38, -22.38, -0.1967, 0.4597, 22.9853, -9.8325, -9.8325
347.4, (226.338,-19.932), 348.6002, 100.0, 347.88019538749455, -14.4, -14.4, -0.1152, 0.4865, 24.3275, -5.7597, -5.7597
357.48, (228.318,-20.195), 358.6802, 100.0, 358.320178936232, -4.02, -4.02, -0.0251, 0.4994, 24.9684, -1.2561, -1.2561
7.74, (230.313,-20.093), 8.9402, 100.0, 8.640159974071967, 6.36, 6.36, 0.0647, 0.4958, 24.7895, 3.2372, 3.2372
17.58, (232.067,-19.7), 18.7801, 100.0, 18.060142938899983, 15.9, 15.9, 0.145, 0.4785, 23.9254, 7.2509, 7.2509
27.9, (233.915,-18.941), 29.1001, 100.0, 28.02012718940516, 25.74, 25.74, 0.2256, 0.4462, 22.3107, 11.2797, 11.2797
38.1, (235.596,-17.863), 39.3001, 100.0, 38.52010773119071, 36.18, 36.18, 0.3031, 0.3976, 19.8815, 15.1567, 15.1567
48.06, (237.056,-16.499), 49.2601, 100.0, 48.900094450167785, 46.62, 46.62, 0.3698, 0.3365, 16.8253, 18.4908, 18.4908
58.14, (238.244,-14.894), 59.3401, 100.0, 59.34007846739864, 57.06, 57.06, 0.4247, 0.2639, 13.1961, 21.2335, 21.2335
65.76, (239.049,-13.286), 66.9601, 100.0, 67.32006292335883, 66.84, 66.84, 0.4572, 0.2024, 10.1206, 22.8599, 22.8599
55.5, (240.033,-11.548), 56.7, 100.0, 57.120049138934995, 57, 57, 0.4141, 0.2802, 14.0087, 20.7064, 20.7064
45.66, (241.306,-10.008), 46.86, 100.0, 47.22003498090547, 46.74, 46.74, 0.3598, 0.3472, 17.3602, 17.9896, 17.9896
49.62, (242.676,-8.554), 50.82, 100.0, 50.82001567815346, 50.04, 50.04, 0.3809, 0.3239, 16.1964, 19.0441, 19.0441
41.1, (243.959,-7.294), 42.3, 100.0, 41.58000420493269, 41.4, 41.4, 0.3239, 0.3809, 19.0441, 16.1964, 16.1964
51, (245.35,-5.861), 52.2, 100.0, 51.89998999901259, 49.62, 49.62, 0.3869, 0.3167, 15.8345, 19.346, 19.346
42, (246.719,-4.406), 43.2, 100.0, 43.19997403341456, 43.14, 43.14, 0.3346, 0.3716, 18.5786, 16.7283, 16.7283
32.7, (248.139,-3.303), 33.9, 100.0, 34.919958374945566, 34.74, 34.74, 0.2776, 0.4159, 20.794, 13.8784, 13.8784
23.52, (249.889,-2.34), 24.7199, 100.0, 25.379944699813958, 25.32, 25.32, 0.2048, 0.4561, 22.8066, 10.2401, 10.2401
14.7, (251.773,-1.674), 15.8999, 100.0, 16.259927789847286, 16.26, 16.26, 0.1299, 0.4828, 24.1414, 6.4958, 6.4958
5.28, (253.74,-1.328), 6.4799, 100.0, 6.899914369676745, 6.78, 6.78, 0.0497, 0.4975, 24.8764, 2.483, 2.483
7.02, (255.735,-1.194), 8.2199, 100.0, 8.219898597463406, 5.94, 5.94, 0.0611, 0.4963, 24.8126, 3.0554, 3.0554
5.94, (257.512,-0.912), 7.1399, 100.0, 7.499885933309631, 7.38, 7.38, 0.0549, 0.497, 24.849, 2.7434, 2.7434
356.52, (259.51,-0.872), 358.0799, 100.0, 358.43986697127553, -1.98, -1.98, -0.0272, 0.4993, 24.9629, -1.3607, -1.3607
346.56, (261.484,-1.177), 348.1198, 100.0, 348.4198481712472, -12.42, -12.42, -0.1137, 0.4869, 24.3454, -5.6833, -5.6833
336.78, (263.374,-1.822), 338.3398, 100.0, 338.3398260351354, -22.14, -22.14, -0.1971, 0.4595, 22.9749, -9.8566, -9.8566
327.06, (264.958,-2.674), 328.6198, 100.0, 329.39980894034704, -30.96, -30.96, -0.2661, 0.4233, 21.1641, -13.3071, -13.3071
316.8, (266.532,-3.904), 318.3598, 100.0, 319.0797905202266, -41.46, -41.46, -0.3377, 0.3688, 18.4378, -16.8833, -16.8833
307.5, (267.867,-5.389), 309.0598, 100.0, 309.0597734575676, -51.84, -51.84, -0.3967, 0.3044, 15.219, -19.8338, -19.8338
297.6, (268.832,-6.906), 299.1598, 100.0, 299.93975759220405, -60.54, -60.54, -0.4399, 0.2377, 11.8829, -21.9954, -21.9954
287.4, (269.606,-8.748), 288.9597, 100.0, 289.6797371118113, -70.68, -70.68, -0.4752, 0.1555, 7.7752, -23.7602, -23.7602
277.38, (270.048,-10.696), 278.9397, 100.0, 279.7197224849425, -80.76, -80.76, -0.4949, 0.071, 3.5484, -24.7469, -24.7469
267.6, (270.14,-12.691), 269.1597, 100.0, 269.5197020109631, -91.08, -91.08, -0.4997, -0.0178, -0.8899, -24.9842, -24.9842
257.88, (269.925,-14.476), 259.4397, 100.0, 260.5796859189447, -99.96, -99.96, -0.4908, -0.0952, -4.7617, -24.5423, -24.5423
248.4, (269.356,-16.391), 249.9597, 100.0, 250.31967006121695, -110.22, -110.22, -0.466, -0.1811, -9.0569, -23.3018, -23.3018
238.5, (268.461,-18.176), 240.0597, 100.0, 240.41965219622276, -120.3, -120.3, -0.428, -0.2586, -12.9283, -21.3977, -21.3977
228.96, (267.272,-19.782), 230.5196, 100.0, 230.51963815741905, -130.02, -130.02, -0.3771, -0.3283, -16.4146, -18.8563, -18.8563
219.12, (265.824,-21.158), 220.6796, 100.0, 220.67962698732603, -139.74, -139.74, -0.3155, -0.3879, -19.3957, -15.7737, -15.7737
208.68, (264.327,-22.153), 210.2396, 100.0, 210.95960938189657, -149.46, -149.46, -0.2455, -0.4356, -21.7803, -12.2726, -12.2726
198.72, (262.498,-22.956), 200.2796, 100.0, 200.639593442305, -159.84, -159.84, -0.1634, -0.4725, -23.6266, -8.1722, -8.1722
189, (260.557,-23.426), 190.5596, 100.0, 190.55958003605426, -169.86, -169.86, -0.0782, -0.4938, -24.6922, -3.9109, -3.9109
196.02, (258.792,-23.77), 197.5796, 100.0, 196.7995649359972, -165.96, -165.96, -0.1314, -0.4824, -24.1208, -6.5716, -6.5716
204.9, (256.913,-24.449), 206.4596, 100.0, 206.0995514364472, -156.6, -156.6, -0.2077, -0.4548, -22.7418, -10.3832, -10.3832
215.22, (255.188,-25.456), 216.7795, 100.0, 216.41953137770747, -146.22, -146.22, -0.2858, -0.4103, -20.5138, -14.2893, -14.2893
225.12, (253.674,-26.759), 226.6795, 100.0, 226.67951719293887, -135.96, -135.96, -0.3543, -0.3528, -17.6406, -17.7147, -17.7147
235.38, (252.531,-28.147), 236.9395, 100.0, 236.21950501072263, -126.42, -126.42, -0.4079, -0.2892, -14.4607, -20.3933, -20.3933
245.76, (251.54,-29.881), 247.3195, 100.0, 246.65949078120735, -116.1, -116.1, -0.4535, -0.2105, -10.5259, -22.6761, -22.6761
255.66, (250.877,-31.765), 257.2195, 100.0, 256.85947274894176, -105.72, -105.72, -0.4836, -0.1269, -6.3439, -24.1817, -24.1817
265.92, (250.561,-33.737), 267.4795, 100.0, 267.1194556739324, -95.58, -95.58, -0.4985, -0.0387, -1.9354, -24.925, -24.925
276, (250.589,-35.535), 277.5594, 100.0, 276.7794435626929, -85.86, -85.86, -0.4979, 0.0455, 2.2745, -24.8963, -24.8963
285.96, (250.963,-37.497), 287.5194, 100.0, 287.15942600302924, -75.48, -75.48, -0.4816, 0.1345, 6.723, -24.0791, -24.0791
279.36, (251.441,-39.437), 280.9194, 100.0, 280.91941186576275, -79.44, -79.44, -0.4933, 0.0813, 4.0659, -24.6671, -24.6671
269.46, (251.577,-41.23), 271.0194, 100.0, 271.85939786544884, -88.62, -88.62, -0.5, 0.0026, 0.1309, -24.9997, -24.9997
263.04, (251.407,-43.22), 264.5994, 100.0, 264.1793825373333, -98.46, -98.46, -0.4959, -0.0642, -3.2112, -24.7929, -24.7929
273.24, (251.344,-45.217), 274.7994, 100.0, 274.4993644042968, -88.08, -88.08, -0.4993, 0.0256, 1.2823, -24.9671, -24.9671
283.2, (251.645,-47.191), 284.7593, 100.0, 284.7593497565303, -77.88, -77.88, -0.4868, 0.1142, 5.7088, -24.3395, -24.3395
282.54, (252.127,-48.925), 284.0993, 100.0, 284.87933562539, -75.84, -75.84, -0.4865, 0.1152, 5.7597, -24.3275, -24.3275
273.12, (252.404,-50.904), 274.6793, 100.0, 275.45931602453646, -85.08, -85.08, -0.4988, 0.034, 1.7004, -24.9421, -24.9421
263.7, (252.35,-52.901), 265.2593, 100.0, 265.6793008199663, -94.74, -94.74, -0.4974, -0.0512, -2.5611, -24.8685, -24.8685
260.94, (252.035,-54.672), 262.4993, 100.0, 261.59928745694486, -100.68, -100.68, -0.4925, -0.0865, -4.324, -24.6232, -24.6232
264.18, (251.853,-56.663), 265.7393, 100.0, 266.519265163648, -94.32, -94.32, -0.4981, -0.0439, -2.1963, -24.9033, -24.9033
258.24, (251.492,-58.628), 259.7992, 100.0, 259.4392486452516, -103.26, -103.26, -0.4889, -0.105, -5.249, -24.4428, -24.4428
267.12, (251.274,-60.413), 268.6792, 100.0, 267.5992306097556, -93.6, -93.6, -0.4988, -0.0345, -1.7265, -24.9403, -24.9403
276.3, (251.345,-62.409), 277.8592, 100.0, 277.8592152111664, -84.06, -84.06, -0.497, 0.0549, 2.7434, -24.849, -24.849
286.2, (251.742,-64.367), 287.7592, 100.0, 287.75919666605233, -74.94, -74.94, -0.4801, 0.1395, 6.9748, -24.0073, -24.0073
295.68, (252.45,-66.234), 297.2392, 100.0, 297.23917575007874, -65.52, -65.52, -0.4506, 0.2167, 10.8336, -22.5307, -22.5307
305.4, (253.455,-67.96), 306.9592, 100.0, 306.5991576599927, -56.1, -56.1, -0.4094, 0.2871, 14.3537, -20.4688, -20.4688
314.46, (254.591,-69.354), 316.0191, 100.0, 314.87914479420147, -47.82, -47.82, -0.3638, 0.343, 17.1518, -18.1883, -18.1883
323.16, (256.083,-70.684), 324.7191, 100.0, 324.2991333169045, -38.46, -38.46, -0.3027, 0.3979, 19.8974, -15.1358, -15.1358
332.34, (257.601,-71.648), 333.8991, 100.0, 333.11911504893567, -29.58, -29.58, -0.2381, 0.4397, 21.9829, -11.906, -11.906
341.64, (259.434,-72.442), 343.1991, 100.0, 342.4791002193905, -20.1, -20.1, -0.1634, 0.4725, 23.6266, -8.1722, -8.1722
339.36, (261.344,-73.034), 340.9191, 100.0, 341.2790840115487, -19.14, -19.14, -0.1733, 0.469, 23.4502, -8.6652, -8.6652
331.08, (263.143,-73.903), 332.6391, 100.0, 332.2790692181256, -29.28, -29.28, -0.2445, 0.4361, 21.806, -12.227, -12.227
340.2, (264.973,-74.703), 341.7591, 100.0, 341.75905102986496, -19.8, -19.8, -0.1694, 0.4704, 23.522, -8.4684, -8.4684
350.28, (266.712,-75.16), 351.839, 100.0, 351.05903625885543, -11.64, -11.64, -0.0911, 0.4916, 24.5814, -4.5559, -4.5559
340.56, (268.648,-75.649), 342.119, 100.0, 342.8390193351577, -17.64, -17.64, -0.1605, 0.4735, 23.6775, -8.0236, -8.0236
348.18, (270.561,-76.224), 349.739, 100.0, 349.37901016540434, -13.2, -13.2, -0.1055, 0.4887, 24.4372, -5.2746, -5.2746
357.36, (272.343,-76.466), 358.919, 100.0, 357.8989923440121, -4.68, -4.68, -0.0319, 0.499, 24.949, -1.5959, -1.5959
4.62, (274.342,-76.459), 6.541, 100.0, 6.180996028453578, 3.06, 3.06, 0.0371, 0.4986, 24.9309, 1.8571, 1.8571
14.4, (276.312,-76.125), 16.321, 100.0, 15.900982049020001, 12.9, 12.9, 0.1208, 0.4852, 24.2595, 6.0396, 6.0396
24.6, (278.192,-75.453), 26.521, 100.0, 26.100965754817796, 23.1, 23.1, 0.2048, 0.4561, 22.8066, 10.2401, 10.2401
34.08, (279.928,-74.463), 36.001, 100.0, 36.00095167446998, 33.36, 33.36, 0.2802, 0.4141, 20.7064, 14.0087, 14.0087
44.16, (281.316,-73.321), 46.0809, 100.0, 45.30093461542872, 42.54, 42.54, 0.3434, 0.3634, 18.1704, 17.1708, 17.1708
42.66, (282.708,-71.886), 44.5809, 100.0, 45.30092321803796, 44.16, 44.16, 0.3434, 0.3634, 18.1704, 17.1708, 17.1708
33.12, (284.284,-70.658), 35.0409, 100.0, 35.400906009993236, 34.68, 34.68, 0.2758, 0.417, 20.852, 13.7911, 13.7911
23.76, (285.864,-69.8), 25.6809, 100.0, 26.460890418149695, 25.2, 25.2, 0.2077, 0.4548, 22.7418, 10.3832, 10.3832
13.74, (287.755,-69.156), 15.6609, 100.0, 16.080873460201683, 15.12, 15.12, 0.1223, 0.4848, 24.2404, 6.1158, 6.1158
3.48, (289.73,-68.858), 5.4009, 100.0, 5.760850271674063, 4.98, 4.98, 0.0335, 0.4989, 24.9439, 1.6743, 1.6743
1.5, (291.529,-68.853), 4.0192, 100.0, 3.2991551290787187, -0.36, -0.36, 0.0068, 0.5, 24.9977, 0.3403, 0.3403
11.94, (293.317,-68.668), 14.4591, 100.0, 12.719138423303855, 9.12, 9.12, 0.0885, 0.4921, 24.6049, 4.4271, 4.4271
22.5, (295.418,-68.026), 25.0191, 100.0, 24.71912047290951, 21.06, 21.06, 0.1889, 0.4629, 23.1468, 9.446, 9.446
19.62, (297.255,-67.236), 22.1391, 100.0, 22.139106719428202, 20.7, 20.7, 0.1679, 0.471, 23.5485, 8.3945, 8.3945
9.78, (298.995,-66.786), 12.2991, 100.0, 12.719092807674302, 11.28, 11.28, 0.0885, 0.4921, 24.6049, 4.4271, 4.4271
11.82, (300.973,-66.496), 14.3391, 100.0, 13.919079657402328, 10.32, 10.32, 0.0988, 0.4901, 24.5068, 4.9414, 4.9414
21.72, (302.884,-65.916), 24.2391, 100.0, 24.239058151124613, 20.7, 20.7, 0.185, 0.4645, 23.2251, 9.2518, 9.2518
31.62, (304.489,-65.105), 34.139, 100.0, 33.41904706038365, 29.94, 29.94, 0.2568, 0.429, 21.4516, 12.8385, 12.8385
22.14, (306.263,-64.186), 24.659, 100.0, 25.499027589563607, 24.06, 24.06, 0.1952, 0.4603, 23.016, 9.7602, 9.7602
30.18, (308.072,-63.339), 32.699, 100.0, 32.33901157739825, 28.74, 28.74, 0.2486, 0.4338, 21.6898, 12.4319, 12.4319
22.56, (309.845,-62.418), 25.079, 100.0, 25.438989429040827, 24, 24, 0.1947, 0.4605, 23.0262, 9.7361, 9.7361
22.74, (311.534,-61.799), 25.259, 100.0, 24.538972852142535, 20.94, 20.94, 0.1875, 0.4635, 23.1763, 9.3733, 9.3733
23.76, (313.337,-60.935), 26.279, 100.0, 26.698959477879285, 25.26, 25.26, 0.2048, 0.4561, 22.8066, 10.2401, 10.2401
14.64, (315.034,-60.339), 17.1589, 100.0, 17.81894394786484, 16.38, 16.38, 0.1319, 0.4823, 24.1139, 6.5968, 6.5968
17.52, (316.976,-59.865), 20.0389, 100.0, 19.318932398664227, 16.02, 16.02, 0.1445, 0.4787, 23.933, 7.2258, 7.2258
27.12, (318.821,-59.102), 29.6389, 100.0, 29.638914377151018, 26.1, 26.1, 0.2279, 0.445, 22.2513, 11.3964, 11.3964
37.62, (320.504,-58.025), 40.1389, 100.0, 39.83889413977511, 36.18, 36.18, 0.3031, 0.3976, 19.8815, 15.1567, 15.1567
47.4, (321.831,-56.812), 49.9189, 100.0, 48.71888048479444, 45.48, 45.48, 0.3609, 0.3461, 17.3036, 18.044, 18.044
52.2, (323.075,-55.248), 54.7189, 100.0, 55.13886254482753, 53.76, 53.76, 0.3973, 0.3035, 15.1775, 19.8657, 19.8657
42.06, (324.444,-53.793), 44.5788, 100.0, 44.578845597732744, 43.2, 43.2, 0.335, 0.3712, 18.5611, 16.7477, 16.7477
36.42, (325.874,-52.702), 38.9388, 100.0, 38.2788330573502, 34.74, 34.74, 0.2922, 0.4057, 20.2868, 14.6098, 14.6098
46.8, (327.369,-51.379), 49.3188, 100.0, 48.958815660453105, 45.3, 45.3, 0.3623, 0.3446, 17.2278, 18.1163, 18.1163
56.76, (328.597,-49.803), 59.2788, 100.0, 59.27879501067125, 55.74, 55.74, 0.4182, 0.2741, 13.7037, 20.9095, 20.9095
60.54, (329.471,-48.231), 63.0588, 100.0, 64.25878105805418, 62.46, 62.46, 0.4404, 0.2367, 11.8368, 22.0202, 22.0202
51.3, (330.587,-46.574), 53.8188, 100.0, 54.47876384011451, 53.04, 53.04, 0.3938, 0.3081, 15.4053, 19.6895, 19.6895
40.8, (331.968,-45.131), 43.3187, 100.0, 44.098746199368485, 42.66, 42.66, 0.3318, 0.374, 18.7007, 16.5916, 16.5916
31.14, (333.586,-43.96), 33.6587, 100.0, 34.01873025034771, 32.64, 32.64, 0.2612, 0.4263, 21.316, 13.0625, 13.0625
28.86, (335.182,-43.127), 31.3787, 100.0, 30.53871360657241, 27, 27, 0.2349, 0.4414, 22.0696, 11.7445, 11.7445
37.56, (336.846,-42.022), 40.0787, 100.0, 40.07869571591681, 36.36, 36.36, 0.3048, 0.3964, 19.8179, 15.2398, 15.2398
46.5, (338.173,-40.808), 49.0187, 100.0, 48.2986819350543, 44.7, 44.7, 0.3583, 0.3487, 17.4354, 17.9167, 17.9167
53.28, (339.425,-39.252), 55.7987, 100.0, 56.57866735922479, 54.78, 54.78, 0.4048, 0.2935, 14.6734, 20.2408, 20.2408
43.26, (340.749,-37.756), 45.7787, 100.0, 46.91865267457627, 44.82, 44.82, 0.3498, 0.3572, 17.8618, 17.4916, 17.4916
33.24, (342.311,-36.51), 35.7586, 100.0, 36.53863455718302, 34.86, 34.86, 0.2797, 0.4144, 20.7211, 13.9871, 13.9871
23.16, (344.072,-35.568), 25.6786, 100.0, 26.038615999604907, 24.3, 24.3, 0.1995, 0.4585, 22.923, 9.9767, 9.9767
12.9, (345.975,-34.962), 15.4186, 100.0, 15.418595606273449, 13.98, 13.98, 0.1116, 0.4874, 24.369, 5.5813, 5.5813
2.7, (347.756,-34.72), 5.2186, 100.0, 5.938583154605075, 4.62, 4.62, 0.0298, 0.4991, 24.9555, 1.4914, 1.4914
353.58, (349.754,-34.772), 356.0986, 100.0, 356.8785751333031, -4.62, -4.62, -0.0491, 0.4976, 24.879, -2.4569, -2.4569
344.1, (351.713,-35.163), 346.6186, 100.0, 346.91855750175637, -14.58, -14.58, -0.1345, 0.4816, 24.0791, -6.723, -6.723
334.26, (353.393,-35.802), 336.7785, 100.0, 337.8585365847094, -23.52, -23.52, -0.2086, 0.4544, 22.72, -10.4308, -10.4308
324.6, (355.119,-36.809), 327.1185, 100.0, 327.8985220988758, -33.6, -33.6, -0.2841, 0.4115, 20.5735, -14.2033, -14.2033
314.64, (356.641,-38.103), 317.1585, 100.0, 317.5185071803239, -43.74, -43.74, -0.3536, 0.3536, 17.6777, -17.6777, -17.6777
305.76, (357.915,-39.641), 308.2785, 100.0, 308.2784938769366, -53.94, -53.94, -0.4057, 0.2922, 14.6098, -20.2868, -20.2868
315.18, (359.23,-41.144), 317.6985, 100.0, 318.0584761293696, -45.24, -45.24, -0.3502, 0.3569, 17.8435, -17.5103, -17.5103
325.08, (360.612,-42.294), 327.5985, 100.0, 326.9384674570578, -36.72, -36.72, -0.2909, 0.4067, 20.3326, -14.546, -14.546
315.96, (362.164,-43.552), 318.4784, 100.0, 318.83844948439383, -42.72, -42.72, -0.3453, 0.3616, 18.0802, -17.2658, -17.2658
322.68, (363.652,-44.885), 325.1984, 100.0, 325.1984308493698, -38.4, -38.4, -0.3031, 0.3976, 19.8815, -15.1567, -15.1567
331.86, (365.162,-45.861), 334.3784, 100.0, 333.59841534271874, -30.06, -30.06, -0.2418, 0.4376, 21.8824, -12.0897, -12.0897
341.1, (366.988,-46.673), 343.6184, 100.0, 342.89839968953186, -20.64, -20.64, -0.1679, 0.471, 23.5485, -8.3945, -8.3945
349.86, (368.922,-47.173), 352.3784, 100.0, 352.37837702034113, -11.22, -11.22, -0.088, 0.4922, 24.6095, -4.4013, -4.4013
358.86, (370.911,-47.36), 1.3784, 100.0, 1.378363746882373, -2.22, -2.22, -0.0099, 0.4999, 24.9951, -0.4974, -0.4974
7.8, (372.707,-47.253), 10.3183, 100.0, 9.538347593457196, 5.88, 5.88, 0.0611, 0.4963, 24.8126, 3.0554, 3.0554
16.8, (374.659,-46.826), 19.3183, 100.0, 18.898332994442473, 15.36, 15.36, 0.141, 0.4797, 23.9853, 7.0502, 7.0502
19.56, (376.531,-46.124), 22.0783, 100.0, 22.498309967779818, 21, 21, 0.1708, 0.4699, 23.4953, 8.5423, 8.5423
25.08, (378.214,-45.49), 27.5983, 100.0, 26.998298224287534, 23.4, 23.4, 0.2072, 0.4551, 22.7526, 10.3594, 10.3594
34.02, (379.952,-44.505), 36.5383, 100.0, 36.5382772771884, 32.94, 32.94, 0.2797, 0.4144, 20.7211, 13.9871, 13.9871
30.72, (381.601,-43.376), 33.2383, 100.0, 33.238257566291786, 31.8, 31.8, 0.2554, 0.4298, 21.4919, 12.7711, 12.7711
20.64, (383.225,-42.604), 23.1582, 100.0, 23.938244873710566, 22.08, 22.08, 0.1826, 0.4655, 23.2732, 9.13, 9.13
17.04, (385.107,-41.928), 19.5582, 100.0, 19.918228372338906, 18.6, 18.6, 0.1495, 0.4771, 23.856, 7.476, 7.476
15.78, (387.047,-41.446), 18.2982, 100.0, 17.9382118729036, 14.28, 14.28, 0.1329, 0.482, 24.1001, 6.6473, 6.6473
25.32, (388.913,-40.731), 27.8382, 100.0, 27.838195497523444, 24.18, 24.18, 0.2138, 0.452, 22.5983, 10.6918, 10.6918
25.02, (390.501,-39.884), 27.5382, 100.0, 28.678182550288327, 26.88, 26.88, 0.2204, 0.4488, 22.4392, 11.022, 11.022
15, (392.374,-39.191), 17.5182, 100.0, 18.238163011641976, 16.74, 16.74, 0.1355, 0.4813, 24.0649, 6.7734, 6.7734
4.98, (394.341,-38.849), 7.4981, 100.0, 7.4981441440714205, 6.12, 6.12, 0.0434, 0.4981, 24.9056, 2.1702, 2.1702
354.66, (396.139,-38.851), 357.7819, 100.0, 358.921867138298, -3.18, -3.18, -0.0366, 0.4987, 24.9329, -1.831, -1.831
344.64, (398.106,-39.202), 347.7619, 100.0, 348.5418538939223, -13.86, -13.86, -0.1259, 0.4839, 24.1949, -6.2933, -6.2933
334.68, (399.978,-39.897), 337.8018, 100.0, 338.2218394926949, -23.76, -23.76, -0.2105, 0.4535, 22.6761, -10.5259, -10.5259
324.6, (401.697,-40.914), 327.7218, 100.0, 327.7218232256111, -34.32, -34.32, -0.2896, 0.4076, 20.3782, -14.482, -14.482
314.34, (403.061,-42.086), 317.4618, 100.0, 318.24180620346954, -43.86, -43.86, -0.3528, 0.3543, 17.7147, -17.6406, -17.6406
304.2, (404.335,-43.624), 307.3218, 100.0, 308.0417910410909, -54, -54, -0.41, 0.2862, 14.3108, -20.4988, -20.4988
304.14, (405.388,-45.324), 307.2618, 100.0, 306.9617775961876, -57.24, -57.24, -0.4153, 0.2784, 13.9219, -20.7649, -20.7649
303.84, (406.579,-46.929), 306.9618, 100.0, 306.96176609091026, -54.78, -54.78, -0.4153, 0.2784, 13.9219, -20.7649, -20.7649
313.38, (407.692,-48.341), 316.5018, 100.0, 315.7217504822031, -48.48, -48.48, -0.368, 0.3384, 16.9219, -18.4024, -18.4024
305.22, (408.971,-49.876), 308.3417, 100.0, 308.4017275853803, -53.76, -53.76, -0.4082, 0.2888, 14.4393, -20.4085, -20.4085
315.12, (410.258,-51.403), 318.2417, 100.0, 317.9417070838881, -46.2, -46.2, -0.3547, 0.3524, 17.622, -17.7331, -17.7331
305.34, (411.546,-52.93), 308.4617, 100.0, 308.461690815449, -53.58, -53.58, -0.4079, 0.2892, 14.4607, -20.3933, -20.3933
312.72, (412.65,-54.349), 315.8417, 100.0, 315.181673269313, -49.02, -49.02, -0.3712, 0.335, 16.7477, -18.5611, -18.5611
321.9, (414.102,-55.721), 325.0217, 100.0, 324.2416516462652, -40.02, -40.02, -0.3138, 0.3892, 19.4616, -15.6923, -15.6923
316.44, (415.653,-56.981), 319.5616, 100.0, 319.92163465400296, -42.18, -42.18, -0.3423, 0.3645, 18.2242, -17.1137, -17.1137
319.74, (417.09,-58.37), 322.8616, 100.0, 322.86162143868137, -41.34, -41.34, -0.3231, 0.3816, 19.078, -16.1564, -16.1564
328.68, (418.549,-59.422), 331.8016, 100.0, 331.1416082875564, -33, -33, -0.2648, 0.4241, 21.2058, -13.2406, -13.2406
329.28, (420.294,-60.399), 332.4016, 100.0, 331.68159248227875, -30.72, -30.72, -0.2608, 0.4266, 21.3297, -13.0401, -13.0401
337.92, (422.094,-61.265), 341.0416, 100.0, 341.70157638200857, -22.2, -22.2, -0.1826, 0.4655, 23.2732, -9.13, -9.13
343.92, (423.966,-61.962), 347.0416, 100.0, 347.0415609389277, -17.22, -17.22, -0.1385, 0.4804, 24.0219, -6.9245, -6.9245
354.06, (425.931,-62.324), 357.1815, 100.0, 357.1815445673758, -7.14, -7.14, -0.0517, 0.4973, 24.8658, -2.5872, -2.5872
3.66, (427.729,-62.35), 6.7815, 100.0, 6.421527973786517, 2.16, 2.16, 0.0288, 0.4992, 24.9585, 1.4391, 1.4391
13.74, (429.702,-62.043), 16.8615, 100.0, 16.4415149781429, 12.66, 12.66, 0.1152, 0.4865, 24.3275, 5.7597, 5.7597
10.56, (431.638,-61.547), 13.6815, 100.0, 13.681500464793373, 11.58, 11.58, 0.0916, 0.4915, 24.5766, 4.5816, 4.5816
8.4, (433.424,-61.328), 11.5215, 100.0, 10.801486237481566, 6.96, 6.96, 0.0668, 0.4955, 24.7757, 3.341, 3.341
11.28, (435.378,-60.906), 14.4015, 100.0, 14.701471660939582, 12.66, 12.66, 0.1004, 0.4898, 24.4911, 5.0184, 5.0184
12.42, (437.155,-60.619), 15.5415, 100.0, 14.761456020318, 10.5, 10.5, 0.1009, 0.4897, 24.4859, 5.044, 5.044
22.74, (439.062,-60.026), 25.8614, 100.0, 25.201443416809383, 21, 21, 0.188, 0.4633, 23.1665, 9.3975, 9.3975
21.96, (440.876,-59.186), 25.0814, 100.0, 25.441425134916642, 23.52, 23.52, 0.1899, 0.4625, 23.1269, 9.4945, 9.4945
11.82, (442.594,-58.657), 14.9414, 100.0, 16.02140809990062, 13.92, 13.92, 0.1116, 0.4874, 24.369, 5.5813, 5.5813
12.48, (444.566,-58.322), 15.6014, 100.0, 14.821389432715515, 10.62, 10.62, 0.1014, 0.4896, 24.4806, 5.0697, 5.0697
22.56, (446.469,-57.717), 25.6814, 100.0, 25.321371049956824, 21.36, 21.36, 0.1889, 0.4629, 23.1468, 9.446, 9.446
26.22, (448.093,-56.942), 29.3414, 100.0, 28.321356293351396, 24.78, 24.78, 0.2129, 0.4524, 22.6207, 10.6445, 10.6445
33.6, (449.809,-55.919), 36.7213, 100.0, 37.081338982676414, 34.68, 34.68, 0.2793, 0.4147, 20.7357, 13.9653, 13.9653
23.34, (451.566,-54.97), 26.4613, 100.0, 26.821322178136054, 24.84, 24.84, 0.201, 0.4578, 22.8916, 10.0487, 10.0487
13.44, (453.461,-54.339), 16.5613, 100.0, 16.981305341462832, 14.88, 14.88, 0.1198, 0.4854, 24.2721, 5.9888, 5.9888
3.72, (455.239,-54.069), 6.8413, 100.0, 7.561292983615344, 5.52, 5.52, 0.0387, 0.4985, 24.925, 1.9354, 1.9354
355.74, (457.238,-54.072), 356.9387, 100.0, 357.65871153787253, -2.82, -2.82, -0.0309, 0.499, 24.9523, -1.5436, -1.5436
348.54, (459.211,-54.385), 349.7387, 100.0, 349.3786958047427, -12.54, -12.54, -0.1024, 0.4894, 24.4699, -5.1209, -5.1209
358.8, (461.197,-54.596), 359.9987, 100.0, 359.99867894212105, -2.64, -2.64, -0.0105, 0.4999, 24.9945, -0.5236, -0.5236
6.6, (462.991,-54.472), 7.7987, 100.0, 8.458661878091881, 7.26, 7.26, 0.0632, 0.496, 24.7996, 3.1593, 3.1593
356.82, (464.988,-54.412), 357.9013, 100.0, 358.32134698609406, -1.68, -1.68, -0.0241, 0.4994, 24.971, -1.2038, -1.2038
349.5, (466.966,-54.691), 350.5813, 100.0, 350.2813353579833, -11.82, -11.82, -0.0937, 0.4911, 24.5572, -4.6845, -4.6845
357.54, (468.755,-54.87), 358.6213, 100.0, 359.3413207200436, -2.52, -2.52, -0.0152, 0.4998, 24.9885, -0.7591, -0.7591
347.4, (470.736,-55.127), 348.4813, 100.0, 348.9013090068279, -10.8, -10.8, -0.1055, 0.4887, 24.4372, -5.2746, -5.2746
349.8, (472.679,-55.599), 350.8813, 100.0, 350.4612874785027, -11.64, -11.64, -0.0921, 0.4914, 24.5718, -4.6074, -4.6074
358.92, (474.468,-55.786), 0.0013, 100.0, 358.8012773397344, -3.42, -3.42, -0.0199, 0.4996, 24.9802, -0.9946, -0.9946
7.92, (476.463,-55.678), 9.0013, 100.0, 8.281262944718199, 6.06, 6.06, 0.0627, 0.4961, 24.8029, 3.1333, 3.1333
9.42, (478.425,-55.297), 10.5012, 100.0, 10.861247097916799, 10.86, 10.86, 0.0849, 0.4927, 24.6367, 4.2466, 4.2466
17.88, (480.179,-54.899), 18.9612, 100.0, 18.181232705877417, 16.02, 16.02, 0.147, 0.4779, 23.8948, 7.351, 7.351
20.1, (482.087,-54.302), 21.1812, 100.0, 20.82121775426645, 18.66, 18.66, 0.1689, 0.4706, 23.5309, 8.4438, 8.4438
30.24, (483.89,-53.443), 31.3212, 100.0, 31.321200226969715, 29.1, 29.1, 0.2518, 0.432, 21.5981, 12.5906, 12.5906
25.86, (485.442,-52.533), 26.9412, 100.0, 28.081185963842074, 28.02, 28.02, 0.227, 0.4455, 22.2752, 11.3498, 11.3498
33.6, (487.197,-51.579), 34.6812, 100.0, 34.02116410042048, 31.86, 31.86, 0.2719, 0.4196, 20.981, 13.594, 13.594
37.86, (488.847,-50.449), 38.9411, 100.0, 38.221147687460785, 36.06, 36.06, 0.3019, 0.3986, 19.9291, 15.0941, 15.0941
37.38, (490.377,-49.163), 38.4611, 100.0, 38.821131281801065, 38.76, 38.76, 0.306, 0.3954, 19.7699, 15.302, 15.302
36.6, (491.863,-48.147), 37.6811, 100.0, 36.9611171649909, 34.8, 34.8, 0.293, 0.4051, 20.2562, 14.6522, 14.6522
46.68, (493.358,-46.823), 47.7611, 100.0, 46.98110490914761, 45.06, 45.06, 0.3591, 0.348, 17.3978, 17.9532, 17.9532
54.54, (494.599,-45.257), 55.6211, 100.0, 55.62108932178317, 55.32, 55.32, 0.4073, 0.2901, 14.5034, 20.363, 20.363
60.9, (495.599,-43.763), 61.9811, 100.0, 61.32107113084573, 59.16, 59.16, 0.4341, 0.2482, 12.4092, 21.7028, 21.7028
54.6, (496.615,-42.042), 55.6811, 100.0, 56.341053238332854, 56.46, 56.46, 0.4109, 0.2849, 14.2463, 20.5437, 20.5437
44.7, (497.914,-40.525), 45.781, 100.0, 45.78103452138485, 45.66, 45.66, 0.3517, 0.3554, 17.77, 17.5849, 17.5849
34.68, (499.302,-39.381), 35.761, 100.0, 36.421020438384666, 36.36, 36.36, 0.2892, 0.4079, 20.3933, 14.4607, 14.4607
24.24, (501.035,-38.388), 25.321, 100.0, 26.041008485039736, 25.98, 25.98, 0.211, 0.4533, 22.6651, 10.5496, 10.5496
14.04, (502.919,-37.726), 15.121, 100.0, 15.840996494349909, 15.9, 15.9, 0.1274, 0.4835, 24.175, 6.3693, 6.3693
4.26, (504.892,-37.415), 5.341, 100.0, 5.340975922462822, 5.34, 5.34, 0.0371, 0.4986, 24.9309, 1.8571, 1.8571
355.56, (506.691,-37.421), 355.319, 100.0, 356.09902916784824, -2.58, -2.58, -0.0319, 0.499, 24.949, -1.5959, -1.5959
345.18, (508.662,-37.743), 344.939, 100.0, 345.71901177364896, -13.02, -13.02, -0.1213, 0.4851, 24.2532, -6.065, -6.065
335.28, (510.359,-38.336), 335.039, 100.0, 336.1790006697097, -22.56, -22.56, -0.2, 0.4583, 22.9126, -10.0007, -10.0007
325.26, (512.098,-39.319), 325.019, 100.0, 325.7989822947435, -33.18, -33.18, -0.2793, 0.4147, 20.7357, -13.9653, -13.9653
315.6, (513.631,-40.598), 315.359, 100.0, 315.3589660338615, -43.26, -43.26, -0.3498, 0.3572, 17.8618, -17.4916, -17.4916
313.92, (514.955,-41.817), 313.679, 100.0, 314.7589506131468, -43.8, -43.8, -0.3536, 0.3536, 17.6777, -17.6777, -17.6777
314.82, (516.292,-43.304), 314.5789, 100.0, 313.79893091364175, -47.04, -47.04, -0.3594, 0.3476, 17.379, -17.9714, -17.9714
324.66, (517.818,-44.592), 324.4189, 100.0, 323.99891238247056, -36.72, -36.72, -0.2922, 0.4057, 20.2868, -14.6098, -14.6098
328.74, (519.529,-45.626), 328.4989, 100.0, 328.85889246108786, -30.12, -30.12, -0.2568, 0.429, 21.4516, -12.8385, -12.8385
324.06, (520.989,-46.676), 323.8189, 100.0, 322.6788729818997, -37.8, -37.8, -0.3015, 0.3989, 19.9449, -15.0732, -15.0732
319.44, (522.603,-47.855), 319.1989, 100.0, 319.8588603658548, -38.88, -38.88, -0.3207, 0.3836, 19.1791, -16.0362, -16.0362
309.36, (523.872,-49.13), 309.1188, 100.0, 310.31884763952604, -48.6, -48.6, -0.3799, 0.3251, 16.2561, -18.9931, -18.9931
318.54, (525.238,-50.586), 318.2988, 100.0, 317.5788323152346, -43.26, -43.26, -0.3357, 0.3705, 18.526, -16.7865, -16.7865
327.72, (526.824,-51.801), 327.4788, 100.0, 326.7588192241808, -34.02, -34.02, -0.2723, 0.4193, 20.9668, -13.616, -13.616
337.26, (528.588,-52.74), 337.0188, 100.0, 336.2987982172805, -24.6, -24.6, -0.1991, 0.4587, 22.9335, -9.9527, -9.9527
341.58, (530.446,-53.478), 341.3388, 100.0, 340.6187849962455, -20.28, -20.28, -0.1639, 0.4724, 23.618, -8.1969, -8.1969
349.56, (532.381,-53.98), 349.3188, 100.0, 348.5987683950507, -12.12, -12.12, -0.0968, 0.4905, 24.5273, -4.8387, -4.8387
359.58, (534.369,-54.17), 359.3387, 100.0, 358.9187474608385, -1.86, -1.86, -0.0073, 0.4999, 24.9973, -0.3665, -0.3665
9.66, (536.161,-54.029), 9.4187, 100.0, 8.338728508342708, 7.5, 7.5, 0.0746, 0.4944, 24.7202, 3.7298, 3.7298
10.68, (538.113,-53.597), 10.4387, 100.0, 10.798710885909006, 12.12, 12.12, 0.0957, 0.4907, 24.5373, 4.7874, 4.7874
0.42, (540.102,-53.409), 0.1787, 100.0, 0.5386972286836362, 1.86, 1.86, 0.0068, 0.5, 24.9977, 0.3403, 0.3403
351.48, (541.896,-53.527), 351.0013, 100.0, 351.78129041990053, -6.96, -6.96, -0.0673, 0.4954, 24.7722, -3.3669, -3.3669
341.34, (543.839,-53.99), 340.8613, 100.0, 341.58127737914793, -17.16, -17.16, -0.154, 0.4757, 23.7845, -7.7005, -7.7005
335.7, (545.677,-54.774), 335.2213, 100.0, 334.86126050086364, -25.8, -25.8, -0.2086, 0.4544, 22.72, -10.4308, -10.4308
325.62, (547.413,-55.762), 325.1412, 100.0, 325.14124321819475, -33.36, -33.36, -0.2823, 0.4127, 20.6328, -14.117, -14.117
335.52, (548.978,-56.648), 335.0412, 100.0, 333.9612228504048, -26.28, -26.28, -0.2157, 0.4511, 22.5533, -10.7864, -10.7864
343.14, (550.857,-57.324), 342.6612, 100.0, 343.38120746573196, -16.14, -16.14, -0.139, 0.4803, 24.0146, -6.9496, -6.9496
333.06, (552.712,-58.067), 332.5812, 100.0, 333.3011917635832, -25.5, -25.5, -0.2209, 0.4486, 22.4276, -11.0455, -11.0455
323.4, (554.409,-59.12), 322.9212, 100.0, 323.3411732928791, -35.1, -35.1, -0.2952, 0.4036, 20.1792, -14.7581, -14.7581
329.7, (556.052,-60.257), 329.2212, 100.0, 329.22115243355677, -31.38, -31.38, -0.2523, 0.4317, 21.5849, -12.6132, -12.6132
335.16, (557.634,-61.114), 334.6811, 100.0, 333.6611307608382, -26.7, -26.7, -0.2181, 0.4499, 22.4966, -10.9043, -10.9043
333.84, (559.476,-61.892), 333.3611, 100.0, 334.44111046055696, -24, -24, -0.2119, 0.4529, 22.6429, -10.5971, -10.5971
341.28, (561.305,-62.697), 340.8011, 100.0, 340.0810924178612, -20.58, -20.58, -0.1664, 0.4715, 23.5748, -8.3205, -8.3205
351.36, (563.246,-63.166), 350.8811, 100.0, 350.5210799423361, -9.72, -9.72, -0.0782, 0.4938, 24.6922, -3.9109, -3.9109
349.5, (565.229,-63.418), 349.0211, 100.0, 349.0210696868652, -8.22, -8.22, -0.0813, 0.4933, 24.6671, -4.0659, -4.0659
339.42, (566.96,-63.907), 338.9411, 100.0, 339.66105265359954, -19.14, -19.14, -0.1699, 0.4703, 23.5131, -8.4931, -8.4931
340.2, (568.806,-64.674), 339.721, 100.0, 339.4210320557145, -21.24, -21.24, -0.1718, 0.4695, 23.4774, -8.5915, -8.5915
350.4, (570.543,-65.136), 349.921, 100.0, 348.8410149040794, -11.4, -11.4, -0.0927, 0.4913, 24.5669, -4.6331, -4.6331
359.22, (572.534,-65.305), 358.741, 100.0, 359.10099744497904, -1.2, -1.2, -0.0037, 0.5, 24.9993, -0.1833, -0.1833
349.14, (574.521,-65.499), 348.661, 100.0, 349.44098005326344, -9.3, -9.3, -0.0875, 0.4923, 24.6141, -4.3756, -4.3756
339.3, (576.442,-66.048), 338.821, 100.0, 338.82095916026134, -19.62, -19.62, -0.1767, 0.4677, 23.3861, -8.8369, -8.8369
332.34, (578.101,-66.741), 331.8609, 100.0, 333.00094574445086, -25.74, -25.74, -0.2233, 0.4474, 22.3695, -11.1628, -11.1628
328.5, (579.813,-67.773), 328.0209, 100.0, 327.6009310331263, -33.12, -33.12, -0.2644, 0.4244, 21.2197, -13.2184, -13.2184
333.18, (581.594,-68.68), 332.7009, 100.0, 333.06091711661577, -25.32, -25.32, -0.2228, 0.4476, 22.3811, -11.1393, -11.1393
334.2, (583.17,-69.548), 333.7209, 100.0, 333.00090200524136, -27.66, -27.66, -0.2233, 0.4474, 22.3695, -11.1628, -11.1628
337.14, (585.005,-70.342), 336.6609, 100.0, 335.8808817719476, -24.84, -24.84, -0.2005, 0.458, 22.9021, -10.0247, -10.0247
343.92, (586.902,-70.97), 343.4409, 100.0, 343.8608619158347, -14.64, -14.64, -0.135, 0.4814, 24.072, -6.7482, -6.7482
344.7, (588.802,-71.592), 344.2208, 100.0, 343.8608431638878, -16.62, -16.62, -0.135, 0.4814, 24.072, -6.7482, -6.7482
345.6, (590.757,-72.008), 345.1208, 100.0, 346.0208247359791, -12.36, -12.36, -0.1167, 0.4862, 24.3092, -5.8361, -5.8361
353.1, (592.711,-72.427), 352.6208, 100.0, 351.90080652862736, -8.64, -8.64, -0.0663, 0.4956, 24.7792, -3.3151, -3.3151
345.54, (594.682,-72.754), 345.0608, 100.0, 345.84079243124586, -12.96, -12.96, -0.1182, 0.4858, 24.2908, -5.9125, -5.9125
354.9, (596.648,-73.102), 354.4208, 100.0, 354.4207781529729, -6.24, -6.24, -0.0444, 0.498, 24.901, -2.2224, -2.2224
352.5, (598.43,-73.353), 352.0208, 100.0, 351.360761691265, -9.24, -9.24, -0.071, 0.4949, 24.7469, -3.5484, -3.5484
1.14, (600.425,-73.457), 0.6607, 100.0, 0.3007404526593669, -0.24, -0.24, 0.0068, 0.5, 24.9977, 0.3403, 0.3403
11.4, (602.41,-73.237), 10.9207, 100.0, 10.620722005219298, 9.9, 9.9, 0.0963, 0.4906, 24.5323, 4.813, 4.813
5.46, (604.18,-72.913), 4.9807, 100.0, 6.180701949612933, 7.8, 7.8, 0.058, 0.4966, 24.8313, 2.8994, 2.8994
8.34, (606.168,-72.708), 7.8607, 100.0, 8.700680440203982, 8.46, 8.46, 0.0798, 0.4936, 24.6798, 3.9884, 3.9884
358.86, (608.162,-72.595), 358.4993, 100.0, 358.1993329318574, -0.36, -0.36, -0.0126, 0.4998, 24.9921, -0.6283, -0.6283
8.82, (609.956,-72.475), 8.4593, 100.0, 7.739315853638788, 7.02, 7.02, 0.0705, 0.495, 24.7506, 3.5225, 3.5225
12, (611.936,-72.195), 11.6393, 100.0, 10.559295003493762, 10.14, 10.14, 0.0947, 0.4909, 24.5473, 4.736, 4.736
9.72, (613.883,-71.744), 9.3593, 100.0, 9.719278479017152, 11.16, 11.16, 0.0875, 0.4923, 24.6141, 4.3756, 4.3756
17.4, (615.831,-71.303), 17.0393, 100.0, 17.03926401196493, 16.38, 16.38, 0.1495, 0.4771, 23.856, 7.476, 7.476
12.42, (617.562,-70.813), 12.0593, 100.0, 11.759250812093947, 12.84, 12.84, 0.105, 0.4889, 24.4428, 5.249, 5.249
22.02, (619.473,-70.232), 21.6592, 100.0, 21.29923294332835, 20.52, 20.52, 0.1845, 0.4647, 23.2348, 9.2275, 9.2275
11.88, (621.381,-69.642), 11.5192, 100.0, 12.239217423233319, 13.68, 13.68, 0.1091, 0.488, 24.3979, 5.4536, 5.4536
19.98, (623.309,-69.12), 19.6192, 100.0, 19.259204680642217, 18.84, 18.84, 0.1679, 0.471, 23.5485, 8.3945, 8.3945
28.2, (625.138,-68.315), 27.8392, 100.0, 27.839184216359197, 27.06, 27.06, 0.2363, 0.4407, 22.0326, 11.8138, 11.8138
22.8, (626.731,-67.48), 22.4392, 100.0, 23.63916814830992, 24.78, 24.78, 0.2034, 0.4568, 22.8386, 10.1684, 10.1684
23.7, (628.601,-66.773), 23.3391, 100.0, 22.61914951655977, 21.84, 21.84, 0.1952, 0.4603, 23.016, 9.7602, 9.7602
30.54, (630.374,-65.851), 30.1791, 100.0, 30.17913417166464, 29.46, 29.46, 0.2541, 0.4306, 21.5319, 12.7035, 12.7035
40.56, (631.833,-64.798), 40.1991, 100.0, 39.4791162939325, 38.76, 38.76, 0.3203, 0.3839, 19.1959, 16.0161, 16.0161
50.82, (633.236,-63.377), 50.4591, 100.0, 49.739096454275746, 48.9, 48.9, 0.3836, 0.3207, 16.0362, 19.1791, 19.1791
43.68, (634.56,-61.881), 43.3191, 100.0, 43.67907774451882, 45.12, 45.12, 0.3476, 0.3594, 17.9714, 17.379, 17.379
49.62, (635.837,-60.615), 49.2591, 100.0, 48.119059711351106, 47.76, 47.76, 0.3744, 0.3314, 16.572, 18.7181, 18.7181
44.28, (637.153,-59.11), 43.919, 100.0, 44.75904117499363, 45.9, 45.9, 0.3543, 0.3528, 17.6406, 17.7147, 17.7147
34.38, (638.701,-57.849), 34.019, 100.0, 34.439025017872176, 35.58, 35.58, 0.2854, 0.4106, 20.5287, 14.2678, 14.2678
24.54, (640.266,-56.963), 24.179, 100.0, 25.199012739451835, 26.64, 26.64, 0.2157, 0.4511, 22.5533, 10.7864, 10.7864
29.82, (642.076,-56.114), 29.459, 100.0, 28.678997432029348, 27.84, 27.84, 0.2427, 0.4371, 21.857, 12.1355, 12.1355
34.86, (643.776,-55.061), 34.499, 100.0, 33.83897982361745, 33.42, 33.42, 0.281, 0.4135, 20.677, 14.0521, 14.0521
45.24, (645.306,-53.778), 44.879, 100.0, 44.21896881801554, 43.5, 43.5, 0.351, 0.3561, 17.8068, 17.5476, 17.5476
35.76, (646.818,-52.473), 35.399, 100.0, 35.75895166408966, 37.14, 37.14, 0.2947, 0.4039, 20.1946, 14.737, 14.737
37.08, (648.313,-51.471), 36.7189, 100.0, 35.93893603837283, 35.1, 35.1, 0.296, 0.403, 20.1482, 14.8003, 14.8003
38.46, (649.862,-50.206), 38.0989, 100.0, 37.31891434277746, 38.1, 38.1, 0.3056, 0.3957, 19.7859, 15.2813, 15.2813
47.34, (651.313,-48.835), 46.9789, 100.0, 47.33890012626163, 46.92, 46.92, 0.3698, 0.3365, 16.8253, 18.4908, 18.4908
52.14, (652.529,-47.509), 51.7789, 100.0, 50.57888650405954, 49.86, 49.86, 0.3882, 0.3151, 15.7533, 19.4122, 19.4122
62.28, (653.622,-45.837), 61.9189, 100.0, 61.19887129174878, 60.54, 60.54, 0.4397, 0.2381, 11.906, 21.9829, 21.9829
67.2, (654.415,-44.003), 66.8389, 100.0, 67.25885616201884, 68.64, 68.64, 0.4623, 0.1904, 9.5187, 23.117, 23.117
57.18, (655.356,-42.24), 56.8188, 100.0, 56.81883916932592, 58.32, 58.32, 0.4202, 0.271, 13.55, 21.0094, 21.0094
50.88, (656.453,-40.816), 50.5188, 100.0, 49.438824882122994, 49.02, 49.02, 0.3819, 0.3227, 16.1364, 19.0949, 19.0949
44.1, (657.765,-39.309), 43.7388, 100.0, 44.45880572427741, 45.9, 45.9, 0.3524, 0.3547, 17.7331, 17.622, 17.622
50.28, (659.167,-37.884), 49.9188, 100.0, 49.25878662671855, 48.54, 48.54, 0.3809, 0.3239, 16.1964, 19.0441, 19.0441
60.3, (660.303,-36.242), 59.9388, 100.0, 59.57876824169963, 58.86, 58.86, 0.4328, 0.2505, 12.5227, 21.6375, 21.6375
70.08, (661.065,-34.613), 69.7188, 100.0, 68.63875072164008, 67.92, 67.92, 0.4668, 0.1792, 8.9592, 23.3395, 23.3395
76.2, (661.703,-32.719), 75.8387, 100.0, 75.11873734661108, 74.4, 74.4, 0.484, 0.1254, 6.2679, 24.2015, 24.2015
70.74, (662.207,-30.785), 70.3787, 100.0, 71.15871917173372, 72.6, 72.6, 0.4742, 0.1585, 7.9243, 23.7109, 23.7109
60.66, (663.027,-28.964), 60.2987, 100.0, 60.65870352736261, 62.04, 62.04, 0.4374, 0.2423, 12.1126, 21.8697, 21.8697
68.04, (663.921,-27.178), 67.6787, 100.0, 67.67868599186384, 66.96, 66.96, 0.4637, 0.187, 9.349, 23.1861, 23.1861
77.58, (664.447,-25.458), 77.2187, 100.0, 76.49867031336588, 75.84, 75.84, 0.4869, 0.1137, 5.6833, 24.3454, 24.3454
87.6, (664.705,-23.477), 87.2387, 100.0, 86.57865501415513, 85.8, 85.8, 0.4993, 0.0267, 1.3345, 24.9644, 24.9644
80.28, (664.872,-21.486), 79.9186, 100.0, 80.5786405281276, 81.66, 81.66, 0.4938, 0.0787, 3.9367, 24.6881, 24.6881
87, (665.135,-19.506), 86.6386, 100.0, 86.27862145855909, 85.92, 85.92, 0.4991, 0.0293, 1.4652, 24.957, 24.957
85.68, (665.168,-17.707), 85.3186, 100.0, 86.33861045483971, 87.48, 87.48, 0.4992, 0.0288, 1.4391, 24.9585, 24.9585
75.84, (665.484,-15.735), 75.4786, 100.0, 76.19860088876672, 77.34, 77.34, 0.4863, 0.1162, 5.8107, 24.3153, 24.3153
65.64, (666.139,-13.847), 65.2786, 100.0, 65.99858201148658, 67.14, 67.14, 0.458, 0.2005, 10.0247, 22.9021, 22.9021
65.34, (667.049,-12.067), 64.9786, 100.0, 64.55856275995542, 63.9, 63.9, 0.4529, 0.2119, 10.5971, 22.6429, 22.6429
58.8, (667.948,-10.283), 58.4385, 100.0, 58.43854098501175, 59.88, 59.88, 0.4277, 0.259, 12.9507, 21.3841, 21.3841
49.38, (668.999,-8.825), 49.0185, 100.0, 49.7385239701429, 51.3, 51.3, 0.3836, 0.3207, 16.0362, 19.1791, 19.1791
56.76, (670.227,-7.249), 56.3985, 100.0, 56.39850604187955, 55.62, 55.62, 0.4182, 0.2741, 13.7037, 20.9095, 20.9095
56.46, (671.24,-5.762), 56.0985, 100.0, 55.318491504109794, 54.66, 54.66, 0.413, 0.2819, 14.0954, 20.6475, 20.6475
60.66, (672.223,-4.022), 60.2985, 100.0, 60.65847506110299, 62.22, 62.22, 0.4374, 0.2423, 12.1126, 21.8697, 21.8697
62.4, (673.25,-2.306), 62.0385, 100.0, 61.61845997187423, 60.78, 60.78, 0.4414, 0.2349, 11.7445, 22.0696, 22.0696
72.36, (674.009,-0.459), 71.9984, 100.0, 71.99844195422993, 71.28, 71.28, 0.4765, 0.1515, 7.5759, 23.8245, 23.8245
71.46, (674.483,1.277), 71.0984, 100.0, 72.17842262988415, 73.56, 73.56, 0.477, 0.15, 7.501, 23.8482, 23.8482
61.44, (675.266,3.114), 61.0784, 100.0, 61.79840357836475, 63.24, 63.24, 0.4421, 0.2335, 11.6751, 22.1064, 22.1064
61.68, (676.291,4.831), 61.3184, 100.0, 61.01838749865442, 60.36, 60.36, 0.4389, 0.2395, 11.975, 21.9454, 21.9454
72, (677.072,6.669), 71.6384, 100.0, 71.27837241644511, 70.56, 70.56, 0.4745, 0.1575, 7.8747, 23.7274, 23.7274
65.16, (677.683,8.361), 64.7984, 100.0, 65.81835492792656, 67.14, 67.14, 0.4574, 0.2019, 10.0966, 22.8705, 22.8705
57.42, (678.663,10.101), 57.0583, 100.0, 56.21834053376309, 56.88, 56.88, 0.4173, 0.2754, 13.7693, 20.8664, 20.8664
66.48, (679.592,11.87), 66.1183, 100.0, 65.75832986842522, 66.12, 66.12, 0.4572, 0.2024, 10.1206, 22.8599, 22.8599
76.26, (680.218,13.766), 75.8983, 100.0, 75.89831490948468, 75.48, 75.48, 0.4857, 0.1188, 5.9379, 24.2846, 24.2846
85.44, (680.516,15.54), 85.0783, 100.0, 84.35829833935212, 83.7, 83.7, 0.4979, 0.046, 2.3006, 24.8939, 24.8939
94.32, (680.538,17.537), 93.9583, 100.0, 93.59827823133436, 92.94, 92.94, 0.4988, -0.0345, -1.7265, 24.9403, 24.9403
103.5, (680.23,19.511), 103.1383, 100.0, 103.13826260470796, 102.36, 102.36, 0.4862, -0.1167, -5.8361, 24.3092, 24.3092
99, (679.831,21.265), 98.6382, 100.0, 98.99824934947976, 100.5, 100.5, 0.4933, -0.0813, -4.0659, 24.6671, 24.6671
94.98, (679.663,23.257), 94.6182, 100.0, 94.25823239537705, 93.48, 93.48, 0.4984, -0.0403, -2.0137, 24.9188, 24.9188
104.64, (679.355,25.028), 104.2782, 100.0, 103.55822260037051, 102.84, 102.84, 0.4853, -0.1203, -6.0142, 24.2658, 24.2658
114.48, (678.691,26.912), 114.1182, 100.0, 113.33820403154758, 112.92, 112.92, 0.4578, -0.201, -10.0487, 22.8916, 22.8916
124.44, (677.705,28.649), 124.0782, 100.0, 124.07818974861209, 123.06, 123.06, 0.4124, -0.2828, -14.1386, 20.618, 20.618
132.48, (676.561,30.036), 132.1182, 100.0, 132.8981726021553, 132.54, 132.54, 0.3641, -0.3427, -17.1328, 18.2063, 18.2063
122.16, (675.349,31.624), 121.7982, 100.0, 122.51815190680522, 123.6, 123.6, 0.4199, -0.2714, -13.572, 20.9952, 20.9952
130.68, (674.175,33.239), 130.3181, 100.0, 130.31813905303466, 129.6, 129.6, 0.3792, -0.3259, -16.2958, 18.959, 18.959
129.06, (673.048,34.642), 128.6981, 100.0, 127.61812600360557, 126.84, 126.84, 0.3941, -0.3077, -15.3847, 19.7056, 19.7056
133.62, (671.681,36.099), 133.2581, 100.0, 133.978107391152, 135.54, 135.54, 0.3576, -0.3495, -17.4729, 17.8801, 17.8801
141.78, (670.224,37.466), 141.4181, 100.0, 141.0580958364809, 140.34, 140.34, 0.3118, -0.3909, -19.5435, 15.5902, 15.5902
146.52, (668.566,38.582), 146.1581, 100.0, 146.45808616547444, 147.9, 147.9, 0.2736, -0.4185, -20.9239, 13.6818, 13.6818
136.38, (667.009,39.833), 136.0181, 100.0, 136.01807014965047, 137.76, 137.76, 0.3449, -0.362, -18.0983, 17.2468, 17.2468
126.42, (665.821,41.183), 126.0581, 100.0, 126.77805347812391, 128.16, 128.16, 0.3986, -0.3019, -15.0941, 19.9291, 19.9291
115.92, (664.78,42.887), 115.558, 100.0, 116.33804016529157, 117.48, 117.48, 0.4467, -0.2247, -11.233, 22.3343, 22.3343
106.02, (664.066,44.753), 105.658, 100.0, 105.95802099972187, 107.4, 107.4, 0.4799, -0.1405, -7.025, 23.9927, 23.9927
95.52, (663.697,46.716), 95.158, 100.0, 95.57800284054836, 96.96, 96.96, 0.4973, -0.0517, -2.5872, 24.8658, 24.8658
85.74, (663.674,48.513), 85.378, 100.0, 86.15798839753035, 87.6, 87.6, 0.4991, 0.0304, 1.5175, 24.9539, 24.9539
72.24, (664.159,51.062), 71.878, 100.0, 72.59796779203441, 74.04, 74.04, 0.4781, 0.1465, 7.326, 23.9025, 23.9025
61.8, (664.932,52.903), 61.438, 100.0, 62.27795045451031, 63.78, 63.78, 0.4441, 0.2298, 11.4895, 22.2034, 22.2034
65.04, (665.892,54.657), 64.6779, 100.0, 64.3179337872915, 63.6, 63.6, 0.452, 0.2138, 10.6918, 22.5983, 22.5983
73.92, (666.588,56.53), 73.5579, 100.0, 73.55791142928742, 72.78, 72.78, 0.4804, 0.1385, 6.9245, 24.0219, 24.0219
83.04, (666.948,58.292), 82.6779, 100.0, 81.53789193904619, 81.12, 81.12, 0.495, 0.0705, 3.5225, 24.7506, 24.7506
83.76, (667.095,60.286), 83.3979, 100.0, 84.1178767725255, 85.62, 85.62, 0.4977, 0.0481, 2.4048, 24.8841, 24.8841
74.1, (667.48,62.246), 73.7379, 100.0, 74.03785978183271, 75.54, 75.54, 0.4816, 0.1345, 6.723, 24.0791, 24.0791
69.42, (668.175,64.12), 69.0578, 100.0, 69.05784600025737, 68.28, 68.28, 0.4681, 0.1758, 8.7879, 23.4046, 23.4046
74.7, (668.667,65.85), 74.3378, 100.0, 75.47782878176632, 76.56, 76.56, 0.4848, 0.1223, 6.1158, 24.2404, 24.2404
64.68, (669.349,67.728), 64.3178, 100.0, 65.03780874370857, 66.48, 66.48, 0.4546, 0.2081, 10.407, 22.7309, 22.7309
71.1, (670.148,69.559), 70.7378, 100.0, 70.37779657018208, 69.6, 69.6, 0.472, 0.1649, 8.2464, 23.6008, 23.6008
80.28, (670.651,71.493), 79.9178, 100.0, 79.5577767288385, 78.78, 78.78, 0.4923, 0.0875, 4.3756, 24.6141, 24.6141
75.66, (670.957,73.265), 75.2978, 100.0, 76.31776128364923, 77.76, 77.76, 0.4865, 0.1152, 5.7597, 24.3275, 24.3275
66.06, (671.601,75.156), 65.6977, 100.0, 66.4177475597819, 67.92, 67.92, 0.4595, 0.1971, 9.8566, 22.9749, 22.9749
56.28, (672.565,76.906), 55.9177, 100.0, 56.337733976272204, 57.48, 57.48, 0.4179, 0.2745, 13.7256, 20.8952, 20.8952
64.08, (673.589,78.621), 63.7177, 100.0, 63.35771385082605, 62.7, 62.7, 0.4483, 0.2214, 11.069, 22.416, 22.416
57.66, (674.526,80.385), 57.2977, 100.0, 57.2976946325068, 58.74, 58.74, 0.4224, 0.2675, 13.3736, 21.1222, 21.1222
47.76, (675.617,81.815), 47.7577, 100.0, 48.83767859080874, 49.92, 49.92, 0.3764, 0.3291, 16.4541, 18.8219, 18.8219
37.56, (677.078,83.177), 37.5577, 100.0, 38.2776597262671, 39.42, 39.42, 0.3098, 0.3925, 19.6248, 15.4876, 15.4876
27.84, (678.76,84.254), 27.8376, 100.0, 28.197641916261976, 29.22, 29.22, 0.2363, 0.4407, 22.0326, 11.8138, 11.8138
18.36, (680.604,85.024), 18.3576, 100.0, 18.357625603979695, 19.08, 19.08, 0.1575, 0.4745, 23.7274, 7.8747, 7.8747
8.16, (682.355,85.429), 8.1576, 100.0, 8.937609914231365, 9.78, 9.78, 0.0777, 0.4939, 24.6963, 3.885, 3.885
6.72, (684.347,85.606), 6.7176, 100.0, 6.357592296696168, 5.28, 5.28, 0.0554, 0.4969, 24.8461, 2.7694, 2.7694
16.86, (686.3,86.025), 16.8576, 100.0, 16.497568758322252, 15.42, 15.42, 0.142, 0.4794, 23.9705, 7.1004, 7.1004
25.8, (687.972,86.687), 25.7976, 100.0, 25.017555879062076, 24.66, 24.66, 0.2115, 0.4531, 22.654, 10.5734, 10.5734
34.86, (689.689,87.708), 34.8575, 100.0, 34.37753368671662, 34.44, 34.44, 0.2823, 0.4127, 20.6328, 14.117, 14.117
44.34, (691.218,88.993), 44.3375, 100.0, 44.63751396819219, 43.68, 43.68, 0.3513, 0.3558, 17.7884, 17.5662, 17.5662
48.36, (692.644,90.393), 48.3575, 100.0, 48.35750467035795, 47.28, 47.28, 0.3737, 0.3322, 16.6112, 18.6834, 18.6834
49.74, (693.946,91.91), 49.7375, 100.0, 49.73749484252617, 48.48, 48.48, 0.3816, 0.3231, 16.1564, 19.078, 19.078
58.92, (694.984,93.379), 58.9175, 100.0, 58.25748476562466, 57.18, 57.18, 0.4252, 0.263, 13.1516, 21.2611, 21.2611
65.64, (695.872,95.169), 65.6375, 100.0, 65.93747287039761, 67.08, 67.08, 0.4566, 0.2038, 10.1923, 22.828, 22.828
55.68, (696.756,96.735), 55.6775, 100.0, 56.39745807829265, 57.54, 57.54, 0.4165, 0.2767, 13.8348, 20.823, 20.823
65.22, (697.756,98.463), 65.2174, 100.0, 64.85743894247993, 63.78, 63.78, 0.4526, 0.2124, 10.6208, 22.6318, 22.6318
71.1, (698.544,100.3), 71.0974, 100.0, 70.73742432275161, 69.66, 69.66, 0.472, 0.1649, 8.2464, 23.6008, 23.6008
81.12, (698.977,102.045), 81.1174, 100.0, 80.33741136854513, 79.2, 79.2, 0.4929, 0.0839, 4.195, 24.6455, 24.6455
90.66, (699.121,104.037), 90.6574, 100.0, 90.35739309699538, 89.28, 89.28, 0.5, -0.0031, -0.1571, 24.9995, 24.9995
100.5, (698.918,106.025), 100.4974, 100.0, 100.1373786994372, 99.18, 99.18, 0.4922, -0.088, -4.4013, 24.6095, 24.6095
93.24, (698.646,108.004), 93.2374, 100.0, 93.23736459069613, 94.32, 94.32, 0.4992, -0.0283, -1.413, 24.96, 24.96
90.42, (698.549,109.801), 90.4174, 100.0, 91.1973507075334, 92.28, 92.28, 0.4999, -0.0105, -0.5236, 24.9945, 24.9945
80.64, (698.712,111.791), 80.6373, 100.0, 81.05733532953646, 81.78, 81.78, 0.4939, 0.0777, 3.885, 24.6963, 24.6963
84.9, (699.031,113.764), 84.8973, 100.0, 84.89731295626923, 83.76, 83.76, 0.498, 0.0444, 2.2224, 24.901, 24.901
93.36, (699.067,115.563), 93.3573, 100.0, 92.33729566766702, 91.32, 91.32, 0.4996, -0.0204, -1.0207, 24.9792, 24.9792
91.86, (698.896,117.555), 91.8573, 100.0, 92.21728093791448, 93.3, 93.3, 0.4996, -0.0194, -0.9684, 24.9812, 24.9812
86.4, (698.994,119.551), 86.3973, 100.0, 86.03726556018296, 84.9, 84.9, 0.4988, 0.0345, 1.7265, 24.9403, 24.9403
96.54, (698.932,121.547), 96.5372, 100.0, 96.53724489031934, 95.4, 95.4, 0.4967, -0.0569, -2.8474, 24.8373, 24.8373
106.2, (698.576,123.31), 106.1972, 100.0, 105.47722895192945, 104.46, 104.46, 0.4819, -0.1335, -6.6725, 24.0931, 24.0931
108.3, (697.906,125.193), 108.2972, 100.0, 109.01721061261318, 110.1, 110.1, 0.4727, -0.1629, -8.1475, 23.6351, 23.6351
99.12, (697.44,127.135), 99.1172, 100.0, 99.11719397008423, 100.26, 100.26, 0.4937, -0.0793, -3.9626, 24.684, 24.684
93.6, (697.289,129.128), 93.5972, 100.0, 93.59717745267236, 92.52, 92.52, 0.499, -0.0314, -1.5698, 24.9507, 24.9507
102.54, (697.022,130.907), 102.5372, 100.0, 101.81716399382476, 101.46, 101.46, 0.4894, -0.1024, -5.1209, 24.4699, 24.4699
111.42, (696.427,132.814), 111.4171, 100.0, 111.05714693155907, 111.06, 111.06, 0.4666, -0.1797, -8.9836, 23.3301, 23.3301
121.26, (695.53,134.598), 121.2571, 100.0, 121.25713361135246, 120.48, 120.48, 0.4274, -0.2595, -12.9731, 21.3705, 21.3705
130.74, (694.485,136.061), 130.7371, 100.0, 129.59712234201416, 128.58, 128.58, 0.3853, -0.3187, -15.9356, 19.2628, 19.2628
139.68, (693.089,137.49), 139.6771, 100.0, 138.89711268550639, 137.88, 137.88, 0.3287, -0.3768, -18.8391, 16.4344, 16.4344
144.48, (691.539,138.753), 144.4771, 100.0, 144.11709698680772, 143.1, 143.1, 0.293, -0.4051, -20.2562, 14.6522, 14.6522
142.02, (689.889,139.881), 142.0171, 100.0, 142.4370789340885, 143.46, 143.46, 0.3048, -0.3964, -19.8179, 15.2398, 15.2398
132, (688.436,141.251), 131.9971, 100.0, 131.99706300395786, 133.08, 133.08, 0.3716, -0.3346, -16.7283, 18.5786, 18.5786
138.66, (687.194,142.552), 138.657, 100.0, 137.457049497217, 136.74, 136.74, 0.3381, -0.3684, -18.4201, 16.9026, 16.9026
147.54, (685.608,143.768), 147.537, 100.0, 146.7570315495891, 145.98, 145.98, 0.2741, -0.4182, -20.9095, 13.7037, 13.7037
156.9, (683.844,144.705), 156.897, 100.0, 156.17701893078205, 155.52, 155.52, 0.2019, -0.4574, -22.8705, 10.0966, 10.0966
165.6, (681.953,145.349), 165.597, 100.0, 165.23700862122826, 164.52, 164.52, 0.1274, -0.4835, -24.175, 6.3693, 6.3693
174.84, (680.181,145.659), 174.837, 100.0, 173.756990367634, 172.68, 172.68, 0.0543, -0.497, -24.8519, 2.7173, 2.7173
175.26, (678.183,145.748), 175.257, 100.0, 176.33697115773577, 177.06, 177.06, 0.0319, -0.499, -24.949, 1.5959, 1.5959
171.66, (676.207,146.043), 171.657, 100.0, 170.99695400575132, 169.92, 169.92, 0.0782, -0.4938, -24.6922, 3.9109, 3.9109
169.98, (674.221,146.28), 169.9769, 100.0, 170.3369354752982, 171.42, 171.42, 0.0839, -0.4929, -24.6455, 4.195, 4.195
171.3, (672.461,146.65), 171.2969, 100.0, 170.5769262830006, 169.5, 169.5, 0.0818, -0.4933, -24.6629, 4.0918, 4.0918
176.64, (670.468,146.799), 176.6369, 100.0, 177.35690280441054, 178.56, 178.56, 0.023, -0.4995, -24.9735, 1.1515, 1.1515
166.8, (668.492,147.09), 166.7969, 100.0, 166.79688451103868, 167.82, 167.82, 0.1142, -0.4868, -24.3395, 5.7088, 5.7088
157.02, (666.785,147.656), 157.0169, 100.0, 157.67687208539402, 158.88, 158.88, 0.1899, -0.4625, -23.1269, 9.4945, 9.4945
147.12, (665.017,148.586), 147.1169, 100.0, 147.89685552358418, 148.56, 148.56, 0.2657, -0.4236, -21.178, 13.285, 13.285
137.16, (663.437,149.807), 137.1568, 100.0, 137.5768345071201, 138.66, 138.66, 0.3373, -0.3691, -18.4555, 16.864, 16.864
127.08, (662.105,151.295), 127.0768, 100.0, 127.07681960001798, 128.16, 128.16, 0.3989, -0.3015, -15.0732, 19.9449, 19.9449
117.06, (661.056,152.995), 117.0568, 100.0, 117.05680484332156, 118.2, 118.2, 0.4453, -0.2275, -11.3731, 22.2633, 22.2633
106.62, (660.389,154.665), 106.6168, 100.0, 107.75678847518476, 108.78, 108.78, 0.4762, -0.1525, -7.6258, 23.8086, 23.8086
96.84, (659.975,156.619), 96.8368, 100.0, 97.19676925439886, 98.4, 98.4, 0.4961, -0.0627, -3.1333, 24.8029, 24.8029
86.58, (659.917,158.615), 86.5767, 100.0, 86.93674894400489, 87.96, 87.96, 0.4993, 0.0267, 1.3345, 24.9644, 24.9644
76.5, (660.218,160.589), 76.4967, 100.0, 76.49672983500398, 77.64, 77.64, 0.4862, 0.1167, 5.8361, 24.3092, 24.3092
66.42, (660.79,162.294), 66.4167, 100.0, 67.43671563264648, 68.46, 68.46, 0.4617, 0.1918, 9.5913, 23.087, 23.087
56.64, (661.734,164.054), 56.6367, 100.0, 57.716697258682274, 58.08, 58.08, 0.4227, 0.267, 13.3514, 21.1362, 21.1362
46.5, (662.965,165.627), 46.4967, 100.0, 47.27668249567771, 48.42, 48.42, 0.3673, 0.3392, 16.9604, 18.3669, 18.3669
45, (664.419,166.999), 44.9967, 100.0, 44.33666271168138, 43.56, 43.56, 0.3495, 0.3576, 17.8801, 17.4729, 17.4729
54, (665.711,168.523), 53.9966, 100.0, 53.636640827971746, 52.86, 52.86, 0.4027, 0.2964, 14.8214, 20.1327, 20.1327
57.6, (666.659,170.053), 57.5966, 100.0, 58.7366319316346, 59.94, 59.94, 0.4274, 0.2595, 12.9731, 21.3705, 21.3705
47.82, (667.866,171.643), 47.8166, 100.0, 48.47661455353584, 49.14, 49.14, 0.3744, 0.3314, 16.572, 18.7181, 18.7181
56.94, (668.978,173.057), 56.9366, 100.0, 55.91659796494154, 54.72, 54.72, 0.4141, 0.2802, 14.0087, 20.7064, 20.7064
61.2, (670.057,174.74), 61.1966, 100.0, 60.47658547127434, 59.34, 59.34, 0.4351, 0.2464, 12.3182, 21.7546, 21.7546
71.28, (670.864,176.567), 71.2766, 100.0, 70.91657294021077, 69.9, 69.9, 0.4725, 0.1634, 8.1722, 23.6266, 23.6266
69.66, (671.457,178.476), 69.6566, 100.0, 69.65655325646544, 70.74, 70.74, 0.4688, 0.1738, 8.6898, 23.4412, 23.4412
60.12, (672.225,180.102), 60.1165, 100.0, 60.836535255865314, 61.86, 61.86, 0.4366, 0.2436, 12.1813, 21.8316, 21.8316
57.84, (673.326,181.77), 57.8365, 100.0, 57.47651617848263, 56.4, 56.4, 0.4216, 0.2688, 13.4398, 21.0801, 21.0801
64.74, (674.175,183.357), 64.7365, 100.0, 63.716497979353335, 62.52, 62.52, 0.4483, 0.2214, 11.069, 22.416, 22.416
71.28, (674.888,185.223), 71.2765, 100.0, 72.11648533966802, 72.78, 72.78, 0.4759, 0.1535, 7.6756, 23.7925, 23.7925
67.26, (675.662,187.066), 67.2565, 100.0, 66.89647252261405, 65.82, 65.82, 0.4599, 0.1962, 9.8084, 22.9955, 22.9955
76.92, (676.264,188.97), 76.9165, 100.0, 76.91645415205564, 76.2, 76.2, 0.487, 0.1132, 5.6578, 24.3514, 24.3514
87, (676.518,190.75), 86.9964, 100.0, 85.91643905567234, 85.2, 85.2, 0.4987, 0.0356, 1.7787, 24.9366, 24.9366
96.78, (676.471,192.747), 96.7764, 100.0, 96.0564185567725, 94.92, 94.92, 0.4972, -0.0528, -2.6392, 24.8603, 24.8603
106.32, (676.072,194.704), 106.3164, 100.0, 106.01639893402856, 105.24, 105.24, 0.4806, -0.138, -6.8993, 24.0291, 24.0291
114.66, (675.337,196.562), 114.6564, 100.0, 114.65637969798507, 115.44, 115.44, 0.4544, -0.2086, -10.4308, 22.72, 22.72
121.44, (674.527,198.167), 121.4364, 100.0, 120.71636521686574, 119.64, 119.64, 0.4298, -0.2554, -12.7711, 21.4919, 21.4919
115.56, (673.524,199.896), 115.5563, 100.0, 115.91634899825475, 117, 117, 0.4497, -0.2186, -10.9279, 22.4851, 22.4851
105.12, (672.896,201.58), 105.1163, 100.0, 106.25633465018791, 107.46, 107.46, 0.48, -0.14, -6.9999, 24, 24
114.54, (672.23,203.463), 114.5363, 100.0, 114.17631778555497, 113.1, 113.1, 0.4561, -0.2048, -10.2401, 22.8066, 22.8066
117.54, (671.284,205.224), 117.5363, 100.0, 117.95629714328831, 119.1, 119.1, 0.4416, -0.2344, -11.7214, 22.0819, 22.0819
108.36, (670.581,206.88), 108.3563, 100.0, 109.49627850436315, 110.58, 110.58, 0.4713, -0.1669, -8.3452, 23.566, 23.566
98.1, (670.112,208.821), 98.0963, 100.0, 98.99626086841785, 99.72, 99.72, 0.4938, -0.0782, -3.9109, 24.6922, 24.6922
88.56, (670.006,210.816), 88.5562, 100.0, 88.55624328304174, 89.64, 89.64, 0.4998, 0.0126, 0.6283, 24.9921, 24.9921
81.3, (670.206,212.603), 81.2962, 100.0, 80.27622283042453, 80.4, 80.4, 0.4928, 0.0844, 4.2208, 24.6411, 24.6411
72.78, (670.619,214.557), 72.7762, 100.0, 73.61620355695827, 74.7, 74.7, 0.4797, 0.141, 7.0502, 23.9853, 23.9853
63.9, (671.341,216.42), 63.8962, 100.0, 64.2561856744133, 65.28, 65.28, 0.4504, 0.2171, 10.8572, 22.5194, 22.5194
70.5, (672.088,218.056), 70.4962, 100.0, 69.29616598210954, 68.28, 68.28, 0.4677, 0.1767, 8.8369, 23.3861, 23.3861
80.28, (672.611,219.984), 80.2761, 100.0, 79.13614674197537, 78.36, 78.36, 0.491, 0.0942, 4.7102, 24.5523, 24.5523
90.12, (672.782,221.974), 90.1161, 100.0, 89.75612553030292, 88.68, 88.68, 0.5, 0.0021, 0.1047, 24.9998, 24.9998
99.9, (672.631,223.765), 99.8961, 100.0, 98.75611329342841, 98.04, 98.04, 0.4942, -0.0761, -3.8074, 24.7084, 24.7084
94.68, (672.304,225.737), 94.6761, 100.0, 95.75609821182968, 96.84, 96.84, 0.4975, -0.0502, -2.509, 24.8738, 24.8738
100.86, (672.087,227.724), 100.8561, 100.0, 100.49608077927033, 99.54, 99.54, 0.4916, -0.0911, -4.5559, 24.5814, 24.5814
95.4, (671.751,229.693), 95.3961, 100.0, 95.396064657922, 96.48, 96.48, 0.4978, -0.0471, -2.3527, 24.889, 24.889
86.1, (671.739,231.492), 86.096, 100.0, 86.81604958944325, 87.48, 87.48, 0.4992, 0.0277, 1.3868, 24.9615, 24.9615
78.78, (672.003,233.473), 78.776, 100.0, 79.4360319512674, 80.46, 80.46, 0.4915, 0.0916, 4.5816, 24.5766, 24.5766
76.38, (672.508,235.408), 76.376, 100.0, 76.3760179197992, 75.3, 75.3, 0.4859, 0.1177, 5.887, 24.297, 24.297
80.64, (672.799,237.183), 80.636, 100.0, 81.29600729059146, 82.38, 82.38, 0.4942, 0.0756, 3.7815, 24.7123, 24.7123
70.86, (673.296,239.118), 70.856, 100.0, 71.27598456714004, 71.94, 71.94, 0.4735, 0.1605, 8.0236, 23.6775, 23.6775
69.3, (674.037,240.906), 69.296, 100.0, 68.99596836049271, 67.8, 67.8, 0.4033, 0.1548, 7.7407, 20.1653, 20.1653
79.2, (674.408,242.21), 79.196, 100.0, 79.19595143917012, 78.18, 78.18, 0.2574, 0.0491, 2.4547, 12.868, 12.868
89.4, (674.476,242.833), 89.3959, 100.0, 88.73593752150721, 87.66, 87.66, 0.103, 0.0023, 0.1132, 5.1488, 5.1488
99.48, (674.474,242.944), 99.4759, 100.0, 98.81591744818313, 180, 180, 0, -0, -0, 0, 0
109.8, (674.474,242.944), 109.7959, 100.0, 108.95589799580077, 180, 180, 0, -0, -0, 0, 0
119.88, (674.474,242.944), 119.8759, 100.0, 119.15588552661139, 180, 180, 0, -0, -0, 0, 0
129.66, (674.474,242.944), 129.6559, 100.0, 129.2958703869591, 180, 180, 0, -0, -0, 0, 0
139.56, (674.333,243.076), 139.5559, 100.0, 139.19585383084808, 138.18, 138.18, 0.0797, -0.0924, -4.6177, 3.9859, 3.9859
149.7, (673.612,243.568), 149.6958, 100.0, 149.69584335437844, 148.62, 148.62, 0.1498, -0.2564, -12.8214, 7.4922, 7.4922
159.84, (672.363,244.146), 159.8358, 100.0, 159.1758240022837, 158.1, 158.1, 0.1617, -0.4253, -21.2645, 8.0861, 8.0861
169.98, (670.452,244.661), 169.9758, 100.0, 169.61580776455384, 168.54, 168.54, 0.0901, -0.4918, -24.5909, 4.5044, 4.5044
180.24, (668.461,244.827), 180.2358, 100.0, 179.9357938335942, 178.86, 178.86, 0.0005, -0.5, -25, 0.0262, 0.0262
190.26, (666.67,244.666), 190.2558, 100.0, 189.11577793205691, -171.66, -171.66, -0.0793, -0.4937, -24.684, -3.9626, -3.9626
200.16, (664.741,244.151), 200.1558, 100.0, 199.43575995905798, -161.58, -161.58, -0.1664, -0.4715, -23.5748, -8.3205, -8.3205
210.48, (662.936,243.295), 210.4757, 100.0, 210.1157442610527, -150.9, -150.9, -0.2509, -0.4325, -21.6244, -12.5453, -12.5453
220.62, (661.316,242.127), 220.6157, 100.0, 220.61572731643315, -140.52, -140.52, -0.3255, -0.3795, -18.9761, -16.276, -16.276
230.46, (660.06,240.84), 230.4557, 100.0, 229.79571536138997, -131.22, -131.22, -0.3819, -0.3227, -16.1364, -19.0949, -19.0949
240.96, (658.928,239.194), 240.9557, 100.0, 240.17570321151226, -120.9, -120.9, -0.4338, -0.2486, -12.4319, -21.6898, -21.6898
240.24, (658.021,237.413), 240.2357, 100.0, 240.59568505791947, -118.38, -118.38, -0.4356, -0.2455, -12.2726, -21.7803, -21.7803
246.96, (657.178,235.824), 246.9557, 100.0, 245.93567277241533, -115.14, -115.14, -0.4566, -0.2038, -10.1923, -22.828, -22.828
256.2, (656.523,233.937), 256.1957, 100.0, 255.17565930475087, -106.02, -106.02, -0.4834, -0.1279, -6.3946, -24.1684, -24.1684
265.14, (656.182,231.968), 265.1356, 100.0, 264.41564340235294, -96.66, -96.66, -0.4976, -0.0486, -2.4309, -24.8815, -24.8815
263.52, (656.047,229.973), 263.5156, 100.0, 262.8556286408166, -96.12, -96.12, -0.4961, -0.0621, -3.1074, -24.8061, -24.8061
272.52, (655.995,227.977), 272.5156, 100.0, 272.8756130383363, -87.78, -87.78, -0.4994, 0.0251, 1.2561, -24.9684, -24.9684
262.5, (655.898,225.982), 262.4956, 100.0, 262.49559462943256, -96.48, -96.48, -0.4957, -0.0653, -3.2632, -24.7861, -24.7861
256.86, (655.522,224.223), 256.8556, 100.0, 256.1355849754609, -104.88, -104.88, -0.4854, -0.1198, -5.9888, -24.2721, -24.2721
263.04, (655.224,222.247), 263.0356, 100.0, 263.335566887154, -95.58, -95.58, -0.4966, -0.058, -2.8994, -24.8313, -24.8313
268.08, (655.018,220.46), 268.0755, 100.0, 267.05554934230685, -94.08, -94.08, -0.4993, -0.0256, -1.2823, -24.9671, -24.9671
276.54, (655.077,218.463), 276.5355, 100.0, 275.87553132629074, -85.2, -85.2, -0.4974, 0.0512, 2.5611, -24.8685, -24.8685
286.32, (655.471,216.505), 286.3155, 100.0, 286.01550906188567, -75.06, -75.06, -0.4806, 0.138, 6.8993, -24.0291, -24.0291
296.64, (656.204,214.647), 296.6355, 100.0, 296.33549501951444, -64.74, -64.74, -0.4481, 0.2218, 11.0924, -22.4044, -22.4044
295.02, (657.147,212.884), 295.0155, 100.0, 295.37548212166854, -63.96, -63.96, -0.4517, 0.2143, 10.7155, -22.5871, -22.5871
285.18, (657.765,211.195), 285.1755, 100.0, 286.2554690081463, -72.72, -72.72, -0.48, 0.14, 6.9999, -24, -24
275.16, (658.132,209.232), 275.1555, 100.0, 275.9354537783345, -83.1, -83.1, -0.4973, 0.0517, 2.5872, -24.8658, -24.8658
265.2, (658.136,207.235), 265.1954, 100.0, 265.5554346674816, -93.12, -93.12, -0.4985, -0.0387, -1.9354, -24.925, -24.925
263.16, (657.875,205.454), 263.1554, 100.0, 262.13541790942537, -98.94, -98.94, -0.4953, -0.0684, -3.4188, -24.7651, -24.7651
273.12, (657.797,203.459), 273.1154, 100.0, 272.5154007321978, -88.56, -88.56, -0.4995, 0.022, 1.0992, -24.9758, -24.9758
282.78, (658.069,201.48), 282.7754, 100.0, 282.35538366609677, -78.72, -78.72, -0.4884, 0.107, 5.3513, -24.4205, -24.4205
293.1, (658.692,199.582), 293.0954, 100.0, 292.79536422983915, -68.22, -68.22, -0.4609, 0.1938, 9.6879, -23.0466, -23.0466
298.8, (659.62,197.812), 298.7953, 100.0, 298.79534745804796, -60.12, -60.12, -0.4382, 0.2409, 12.0438, -21.9077, -21.9077
288.42, (660.409,195.977), 288.4153, 100.0, 288.41532828460754, -70.2, -70.2, -0.4744, 0.158, 7.8995, -23.7191, -23.7191
278.88, (660.834,194.23), 278.8753, 100.0, 279.53531121630954, -79.38, -79.38, -0.4931, 0.0829, 4.1434, -24.6543, -24.6543
270.96, (660.976,192.237), 270.9553, 100.0, 270.29529741608565, -89.64, -89.64, -0.5, 0.0026, 0.1309, -24.9997, -24.9997
281.1, (661.186,190.251), 281.0953, 100.0, 280.7352842832207, -80.34, -80.34, -0.4912, 0.0932, 4.6588, -24.5621, -24.5621
291.06, (661.739,188.332), 291.0553, 100.0, 290.69527325393705, -70.44, -70.44, -0.4677, 0.1767, 8.8369, -23.3861, -23.3861
300.18, (662.527,186.716), 300.1753, 100.0, 300.2352609900449, -60.84, -60.84, -0.432, 0.2518, 12.5906, -21.5981, -21.5981
290.34, (663.387,184.913), 290.3352, 100.0, 290.69524692604614, -68.28, -68.28, -0.4677, 0.1767, 8.8369, -23.3861, -23.3861
299.82, (664.228,183.102), 299.8152, 100.0, 299.45523700586114, -61.5, -61.5, -0.4353, 0.2459, 12.2954, -21.7675, -21.7675
290.52, (665.081,181.296), 290.5152, 100.0, 290.5152178361568, -68.16, -68.16, -0.4683, 0.1753, 8.7634, -23.4137, -23.4137
280.86, (665.615,179.371), 280.8552, 100.0, 280.8552036327415, -78.06, -78.06, -0.491, 0.0942, 4.7102, -24.5523, -24.5523
287.88, (666.016,177.618), 287.5752, 100.0, 286.8551932537272, -74.22, -74.22, -0.4777, 0.1475, 7.376, -23.8871, -23.8871
287.7, (666.702,175.74), 287.3952, 100.0, 287.7551788038826, -71.22, -71.22, -0.4754, 0.155, 7.7503, -23.7683, -23.7683
287.64, (667.221,173.809), 287.3352, 100.0, 286.975159328106, -73.74, -73.74, -0.4774, 0.1485, 7.426, -23.8716, -23.8716
289.8, (667.792,172.102), 289.4951, 100.0, 288.77514360524634, -71.94, -71.94, -0.4725, 0.1634, 8.1722, -23.6266, -23.6266
293.28, (668.597,170.272), 292.9751, 100.0, 293.815129761546, -64.8, -64.8, -0.4563, 0.2043, 10.2162, -22.8173, -22.8173
283.38, (669.234,168.38), 283.0751, 100.0, 283.7951111066497, -74.88, -74.88, -0.4849, 0.1218, 6.0904, -24.2468, -24.2468
273.6, (669.524,166.403), 273.2951, 100.0, 273.2950923551038, -85.26, -85.26, -0.499, 0.0314, 1.5698, -24.9507, -24.9507
269.64, (669.482,164.205), 269.3351, 100.0, 268.61507126819845, -92.1, -92.1, -0.4999, -0.0094, -0.4712, -24.9956, -24.9956
272.4, (669.598,162.209), 272.0951, 100.0, 272.4550551480871, -86.22, -86.22, -0.4994, 0.0241, 1.2038, -24.971, -24.971
262.44, (669.51,160.214), 262.135, 100.0, 262.85503525756445, -95.88, -95.88, -0.4964, -0.0595, -2.9774, -24.8221, -24.8221
256.44, (669.093,158.26), 256.135, 100.0, 255.7150177599631, -105.06, -105.06, -0.4852, -0.1208, -6.0396, -24.2595, -24.2595
266.58, (668.805,156.283), 266.275, 100.0, 266.2750006434148, -94.8, -94.8, -0.4991, -0.0298, -1.4914, -24.9555, -24.9555
276.42, (668.853,154.486), 276.115, 100.0, 275.3949870448522, -85.32, -85.32, -0.4975, 0.0497, 2.483, -24.8764, -24.8764
286.8, (669.247,152.528), 286.495, 100.0, 285.774972233459, -74.88, -74.88, -0.4804, 0.1385, 6.9245, -24.0219, -24.0219
296.82, (669.991,150.674), 296.515, 100.0, 296.15495468912087, -64.56, -64.56, -0.4476, 0.2228, 11.1393, -22.3811, -22.3811
307.02, (671.054,148.983), 306.7149, 100.0, 306.7149405367111, -54.24, -54.24, -0.3992, 0.301, 15.0523, -19.9606, -19.9606
317.16, (672.263,147.652), 316.8549, 100.0, 316.0749175504051, -44.64, -44.64, -0.3449, 0.362, 18.0983, -17.2468, -17.2468
327.24, (673.837,146.422), 326.9349, 100.0, 326.27490484524947, -34.5, -34.5, -0.2754, 0.4173, 20.8664, -13.7693, -13.7693
337.44, (675.604,145.492), 337.1349, 100.0, 336.77488823261785, -24.3, -24.3, -0.1947, 0.4605, 23.0262, -9.7361, -9.7361
344.22, (677.506,144.877), 343.9149, 100.0, 343.55486391960136, -15.78, -15.78, -0.139, 0.4803, 24.0146, -6.9496, -6.9496
353.7, (679.47,144.517), 353.3948, 100.0, 353.4548487030082, -6.6, -6.6, -0.0543, 0.497, 24.8519, -2.7173, -2.7173
3.72, (681.467,144.475), 3.4148, 100.0, 3.054834064111347, 2.64, 2.64, 0.0293, 0.4991, 24.957, 1.4652, 1.4652
356.52, (683.266,144.481), 355.0148, 100.0, 355.79482183080705, -1.68, -1.68, -0.0236, 0.4994, 24.9722, -1.1777, -1.1777
346.44, (685.244,144.2), 344.9348, 100.0, 346.01480401437016, -11.4, -11.4, -0.108, 0.4882, 24.4093, -5.4025, -5.4025
337.02, (687.144,143.581), 335.5148, 100.0, 336.1747856678485, -21.3, -21.3, -0.1899, 0.4625, 23.1269, -9.4945, -9.4945
327.18, (688.91,142.648), 325.6748, 100.0, 326.3947668553711, -31.14, -31.14, -0.2657, 0.4236, 21.178, -13.285, -13.285
317.46, (690.492,141.428), 315.9548, 100.0, 316.6147501805138, -40.8, -40.8, -0.3338, 0.3723, 18.6136, -16.6893, -16.6893
307.32, (691.838,139.953), 305.8147, 100.0, 306.1747303189573, -51.3, -51.3, -0.3957, 0.3056, 15.2813, -19.7859, -19.7859
308.28, (692.997,138.324), 306.7747, 100.0, 306.77471544753973, -53.1, -53.1, -0.3925, 0.3098, 15.4876, -19.6248, -19.6248
311.28, (694.342,136.845), 309.7747, 100.0, 310.134699312896, -47.34, -47.34, -0.3737, 0.3322, 16.6112, -18.6834, -18.6834
302.22, (695.527,135.236), 300.7147, 100.0, 301.01467866353914, -56.4, -56.4, -0.4216, 0.2688, 13.4398, -21.0801, -21.0801
293.04, (696.357,133.64), 291.5347, 100.0, 292.7946609647996, -64.98, -64.98, -0.4557, 0.2058, 10.2879, -22.7851, -22.7851
286.14, (696.993,131.746), 284.6346, 100.0, 283.91464745167764, -75.24, -75.24, -0.482, 0.1329, 6.6473, -24.1001, -24.1001
296.34, (697.711,129.883), 294.8346, 100.0, 294.1746303363931, -65.34, -65.34, -0.4506, 0.2167, 10.8336, -22.5307, -22.5307
299.94, (698.716,128.155), 298.4346, 100.0, 299.094620053015, -58.26, -58.26, -0.4304, 0.2545, 12.726, -21.5186, -21.5186
293.28, (699.578,126.352), 291.7746, 100.0, 292.1346056249787, -65.64, -65.64, -0.458, 0.2005, 10.0247, -22.9021, -22.9021
283.32, (700.148,124.647), 281.8146, 100.0, 282.8345922187775, -74.64, -74.64, -0.4844, 0.1238, 6.1919, -24.2211, -24.2211
274.92, (700.45,122.672), 273.4146, 100.0, 272.7545762656536, -85.02, -85.02, -0.4986, 0.0371, 1.8571, -24.9309, -24.9309
285, (700.791,120.704), 283.4946, 100.0, 282.8345588125597, -76.62, -76.62, -0.4844, 0.1238, 6.1919, -24.2211, -24.2211
294.84, (701.464,118.824), 293.3345, 100.0, 292.5545424149949, -66.54, -66.54, -0.4566, 0.2038, 10.1923, -22.828, -22.828
305.04, (702.46,117.092), 303.5345, 100.0, 303.2345245291676, -56.58, -56.58, -0.4109, 0.2849, 14.2463, -20.5437, -20.5437
297.54, (703.533,115.407), 296.0345, 100.0, 296.33450737226514, -61.02, -61.02, -0.4421, 0.2335, 11.6751, -22.1064, -22.1064
288.12, (704.246,113.756), 286.6145, 100.0, 287.3944936363199, -69.36, -69.36, -0.473, 0.162, 8.0979, -23.6521, -23.6521
278.52, (704.722,111.816), 277.0145, 100.0, 277.7344783723248, -79.74, -79.74, -0.4935, 0.0803, 4.0143, -24.6756, -24.6756
268.62, (704.859,109.824), 267.1145, 100.0, 267.7744621133027, -89.58, -89.58, -0.5, -0.0063, -0.3142, -24.998, -24.998
259.08, (704.654,107.836), 257.5744, 100.0, 258.2344465125638, -99.18, -99.18, -0.492, -0.0891, -4.4529, -24.6002, -24.6002
255.42, (704.137,105.905), 253.9144, 100.0, 253.19442498849537, -106.32, -106.32, -0.4823, -0.1319, -6.5968, -24.1139, -24.1139
259.44, (703.772,103.94), 257.9344, 100.0, 257.9344038433424, -99.54, -99.54, -0.4915, -0.0916, -4.5816, -24.5766, -24.5766
259.68, (703.325,101.992), 258.1744, 100.0, 258.17438464342325, -101.28, -101.28, -0.4919, -0.0896, -4.4786, -24.5956, -24.5956
269.94, (703.164,100.001), 268.4344, 100.0, 268.43436871609936, -91.14, -91.14, -0.5, -0.0005, -0.0262, -25, -25
278.82, (703.305,98.208), 277.3144, 100.0, 276.53435619186104, -82.98, -82.98, -0.4951, 0.0699, 3.4966, -24.7543, -24.7543
280.98, (703.729,96.254), 279.4743, 100.0, 279.8343432639831, -77.64, -77.64, -0.4902, 0.0983, 4.9158, -24.5119, -24.5119
271.32, (703.935,94.267), 269.8143, 100.0, 270.17432945757025, -87.6, -87.6, -0.4998, 0.0147, 0.7329, -24.9893, -24.9893
261, (703.794,92.275), 259.4943, 100.0, 259.79431304906336, -97.68, -97.68, -0.4942, -0.0756, -3.7815, -24.7123, -24.7123
251.22, (703.364,90.529), 249.7143, 100.0, 250.7342956385948, -106.68, -106.68, -0.4762, -0.1525, -7.6258, -23.8086, -23.8086
241.62, (702.574,88.694), 240.1143, 100.0, 241.1342791893713, -117, -117, -0.4441, -0.2298, -11.4895, -22.2034, -22.2034
231.84, (701.483,87.021), 230.3343, 100.0, 231.114265045703, -126.78, -126.78, -0.3973, -0.3035, -15.1775, -19.8657, -19.8657
221.82, (700.121,85.56), 220.3142, 100.0, 221.03424835637622, -136.44, -136.44, -0.3381, -0.3684, -18.4201, -16.9026, -16.9026
230.88, (698.726,84.13), 229.3742, 100.0, 228.65423350219348, -130.92, -130.92, -0.3839, -0.3203, -16.0161, -19.1959, -19.1959
241.14, (697.604,82.477), 239.6342, 100.0, 238.91422063992738, -120.6, -120.6, -0.4348, -0.2468, -12.341, -21.7417, -21.7417
251.16, (696.792,80.652), 249.6542, 100.0, 249.29420326282465, -110.34, -110.34, -0.4722, -0.1644, -8.2217, -23.6094, -23.6094
261.24, (696.324,78.711), 259.7342, 100.0, 259.37418378929556, -100.14, -100.14, -0.4937, -0.0793, -3.9626, -24.684, -24.684
271.14, (696.201,76.917), 269.6342, 100.0, 268.61416834240634, -90.9, -90.9, -0.5, 0.001, 0.0524, -24.9999, -24.9999
281.46, (696.407,74.93), 279.9542, 100.0, 278.8741507627308, -80.28, -80.28, -0.4918, 0.0901, 4.5044, -24.5909, -24.5909
291.42, (696.963,73.012), 289.9141, 100.0, 289.1941328966772, -70.38, -70.38, -0.4677, 0.1767, 8.8369, -23.3861, -23.3861
301.62, (697.854,71.224), 300.1141, 100.0, 299.6941098580402, -59.94, -59.94, -0.4277, 0.259, 12.9507, -21.3841, -21.3841
311.64, (699.046,69.622), 310.1341, 100.0, 309.83409659021765, -49.74, -49.74, -0.3754, 0.3303, 16.5131, -18.7701, -18.7701
320.82, (700.485,68.236), 319.3141, 100.0, 319.31407998363443, -40.5, -40.5, -0.3159, 0.3876, 19.3791, -15.794, -15.794
329.7, (701.956,67.202), 328.1941, 100.0, 327.41406417993977, -32.1, -32.1, -0.2581, 0.4282, 21.4112, -12.9059, -12.9059
339, (703.749,66.321), 337.4941, 100.0, 336.83405031421375, -22.68, -22.68, -0.1845, 0.4647, 23.2348, -9.2275, -9.2275
333.3, (705.602,65.573), 331.794, 100.0, 332.15403366749575, -24.9, -24.9, -0.2218, 0.4481, 22.4044, -11.0924, -11.0924
323.7, (707.304,64.527), 322.194, 100.0, 322.55402002882374, -34.86, -34.86, -0.2935, 0.4048, 20.2408, -14.6734, -14.6734
313.68, (708.802,63.205), 312.174, 100.0, 312.53400515623343, -44.94, -44.94, -0.3594, 0.3476, 17.379, -17.9714, -17.9714
304.08, (709.934,61.808), 302.574, 100.0, 303.5939914073248, -53.88, -53.88, -0.4091, 0.2875, 14.3751, -20.4537, -20.4537
294.18, (710.918,60.07), 292.674, 100.0, 293.75397043923573, -64.02, -64.02, -0.4522, 0.2134, 10.6682, -22.6095, -22.6095
292.74, (711.639,58.205), 291.2339, 100.0, 290.573948805697, -68.88, -68.88, -0.4633, 0.188, 9.3975, -23.1665, -23.1665
295.02, (712.523,56.412), 293.5139, 100.0, 294.11393180333386, -63.18, -63.18, -0.4508, 0.2162, 10.81, -22.542, -22.542
285.12, (713.2,54.533), 283.6139, 100.0, 283.61391840301343, -73.86, -73.86, -0.4827, 0.1304, 6.521, -24.1345, -24.1345
275.4, (713.539,52.565), 273.8939, 100.0, 273.8939009421574, -83.64, -83.64, -0.4978, 0.0471, 2.3527, -24.889, -24.889
265.62, (713.544,50.766), 264.1139, 100.0, 264.7138897738158, -92.7, -92.7, -0.4989, -0.033, -1.6481, -24.9456, -24.9456
255.84, (713.22,48.795), 254.3339, 100.0, 254.99387291474116, -102.78, -102.78, -0.4862, -0.1167, -5.8361, -24.3092, -24.3092
246.24, (712.563,46.909), 244.7339, 100.0, 244.73386352642268, -112.68, -112.68, -0.4576, -0.2015, -10.0727, -22.881, -22.881
235.98, (711.588,45.166), 234.4738, 100.0, 234.4738435400772, -122.94, -122.94, -0.4144, -0.2797, -13.9871, -20.7211, -20.7211
226.02, (710.462,43.764), 224.5138, 100.0, 225.59382614357406, -131.82, -131.82, -0.3663, -0.3404, -17.018, -18.3136, -18.3136
221.28, (708.984,42.419), 219.7738, 100.0, 219.29380751277165, -140.4, -140.4, -0.3267, -0.3785, -18.9249, -16.3355, -16.3355
227.04, (707.596,40.982), 225.5338, 100.0, 225.8337939799264, -131.64, -131.64, -0.3677, -0.3388, -16.9412, -18.3847, -18.3847
232.56, (706.261,39.495), 231.0538, 100.0, 230.69377367865349, -128.82, -128.82, -0.3951, -0.3065, -15.3227, -19.7539, -19.7539
242.52, (705.295,37.978), 241.0138, 100.0, 239.99375989630133, -119.64, -119.64, -0.4394, -0.2386, -11.929, -21.9704, -21.9704
237.42, (704.36,36.211), 235.9137, 100.0, 236.993748346102, -120.72, -120.72, -0.4263, -0.2612, -13.0625, -21.316, -21.316
227.4, (703.143,34.628), 225.8937, 100.0, 226.31372902240247, -131.04, -131.04, -0.3705, -0.3357, -16.7865, -18.526, -18.526
232.02, (701.8,33.147), 230.5137, 100.0, 230.1537089088202, -129.42, -129.42, -0.3922, -0.3102, -15.5082, -19.6086, -19.6086
242.16, (700.818,31.641), 240.6537, 100.0, 239.51369902665593, -120.12, -120.12, -0.4374, -0.2423, -12.1126, -21.8697, -21.8697
251.94, (700.02,29.81), 250.4337, 100.0, 249.35368273850838, -109.86, -109.86, -0.4724, -0.1639, -8.1969, -23.618, -23.618
242.46, (699.267,27.96), 240.9537, 100.0, 241.67366437542935, -115.8, -115.8, -0.4462, -0.2256, -11.2797, -22.3107, -22.3107
240.54, (698.371,26.173), 239.0336, 100.0, 239.39364579119183, -117.96, -117.96, -0.4369, -0.2432, -12.1584, -21.8443, -21.8443
230.1, (697.234,24.53), 228.5936, 100.0, 229.01362788632537, -128.28, -128.28, -0.3859, -0.3179, -15.8952, -19.2962, -19.2962
221.1, (695.828,23.111), 219.5936, 100.0, 219.23360505061268, -138.18, -138.18, -0.3263, -0.3788, -18.942, -16.3157, -16.3157
230.94, (694.448,21.667), 229.4336, 100.0, 229.43358511152584, -130.2, -130.2, -0.3882, -0.3151, -15.7533, -19.4122, -19.4122
226.92, (693.226,20.347), 225.4136, 100.0, 225.7735637095808, -133.8, -133.8, -0.3673, -0.3392, -16.9604, -18.3669, -18.3669
217.56, (691.75,19.002), 216.0535, 100.0, 216.05354395106656, -141.36, -141.36, -0.3048, -0.3964, -19.8179, -15.2398, -15.2398
226.86, (690.283,17.646), 225.3535, 100.0, 225.3535243353799, -133.44, -133.44, -0.3648, -0.3419, -17.0946, -18.2421, -18.2421
217.62, (688.785,16.324), 216.1135, 100.0, 216.11351410674646, -142.38, -142.38, -0.3052, -0.396, -19.8019, -15.2605, -15.2605
223.74, (687.458,15.11), 222.2335, 100.0, 222.8934981147303, -134.46, -134.46, -0.3498, -0.3572, -17.8618, -17.4916, -17.4916
213.36, (685.903,13.856), 211.8535, 100.0, 212.6334813156422, -144.72, -144.72, -0.2806, -0.4138, -20.6917, -14.0304, -14.0304
215.94, (684.216,12.784), 214.4335, 100.0, 214.13346161217376, -145.38, -145.38, -0.2913, -0.4063, -20.3174, -14.5673, -14.5673
214.32, (682.629,11.568), 212.8134, 100.0, 212.81344700513117, -144.54, -144.54, -0.2819, -0.413, -20.6475, -14.0954, -14.0954
204.72, (681.062,10.686), 203.2134, 100.0, 203.93342878586589, -153.48, -153.48, -0.2148, -0.4515, -22.5759, -10.7391, -10.7391
196.86, (679.182,10.011), 195.3534, 100.0, 194.57340870085233, -163.98, -163.98, -0.1385, -0.4804, -24.0219, -6.9245, -6.9245
207, (677.326,9.273), 205.4934, 100.0, 204.77339163885011, -154.8, -154.8, -0.2214, -0.4483, -22.416, -11.069, -11.069
216.9, (675.631,8.216), 215.3934, 100.0, 214.97337900784783, -144.6, -144.6, -0.2973, -0.402, -20.1016, -14.8636, -14.8636
227.1, (674.154,6.872), 225.5934, 100.0, 225.59336596248286, -133.92, -133.92, -0.3663, -0.3404, -17.018, -18.3136, -18.3136
237.24, (673.049,5.454), 235.7333, 100.0, 234.8933489498696, -124.68, -124.68, -0.4165, -0.2767, -13.8348, -20.823, -20.823
247.44, (672.109,3.691), 245.9333, 100.0, 245.21333296656624, -114.3, -114.3, -0.4593, -0.1976, -9.8806, -22.9646, -22.9646
257.58, (671.502,1.789), 256.0733, 100.0, 255.71331894462995, -103.98, -103.98, -0.4876, -0.1106, -5.5302, -24.3807, -24.3807
267.66, (671.252,-0.193), 266.1533, 100.0, 265.733307522796, -93.54, -93.54, -0.4994, -0.0241, -1.2038, -24.971, -24.971
277.86, (671.336,-1.989), 276.3533, 100.0, 275.2732950119483, -84, -84, -0.4965, 0.059, 2.9514, -24.8252, -24.8252
284.52, (671.763,-3.94), 283.0133, 100.0, 283.73327442806277, -73.92, -73.92, -0.4824, 0.1314, 6.5716, -24.1208, -24.1208
274.8, (672.096,-5.91), 273.2933, 100.0, 273.6532556175478, -84.06, -84.06, -0.498, 0.045, 2.2484, -24.8987, -24.8987
264.3, (672.078,-7.907), 262.7932, 100.0, 263.573237883416, -94.2, -94.2, -0.4982, -0.0429, -2.1441, -24.9079, -24.9079
271.08, (671.952,-9.901), 269.5732, 100.0, 269.1532248580424, -90.12, -90.12, -0.5, 0.0058, 0.288, -24.9983, -24.9983
265.26, (671.949,-11.7), 263.7532, 100.0, 264.4732074673897, -92.94, -92.94, -0.4988, -0.0351, -1.7526, -24.9385, -24.9385
268.86, (671.803,-13.693), 267.3532, 100.0, 267.71318671182706, -91.26, -91.26, -0.5, -0.0068, -0.3403, -24.9977, -24.9977
259.2, (671.579,-15.678), 257.6932, 100.0, 257.69316822124836, -100.08, -100.08, -0.4911, -0.0937, -4.6845, -24.5572, -24.5572
249.36, (671.093,-17.409), 247.8531, 100.0, 248.57314855858792, -108.78, -108.78, -0.4701, -0.1704, -8.5177, -23.5042, -23.5042
239.04, (670.228,-19.209), 237.5331, 100.0, 238.25313149445094, -119.52, -119.52, -0.432, -0.2518, -12.5906, -21.5981, -21.5981
232.98, (669.162,-20.899), 231.4731, 100.0, 232.1331165627966, -125.28, -125.28, -0.4027, -0.2964, -14.8214, -20.1327, -20.1327
237.9, (667.978,-22.51), 236.3931, 100.0, 236.39310014301617, -123.48, -123.48, -0.4236, -0.2657, -13.285, -21.178, -21.178
242.34, (667.143,-24.103), 240.8331, 100.0, 241.613088541118, -115.92, -115.92, -0.446, -0.2261, -11.3031, -22.2989, -22.2989
234.18, (666.069,-25.787), 232.6731, 100.0, 231.95306795477762, -125.46, -125.46, -0.4017, -0.2977, -14.8846, -20.086, -20.086
243.84, (665.048,-27.504), 242.333, 100.0, 242.33304876798368, -117, -117, -0.4488, -0.2204, -11.022, -22.4392, -22.4392
234, (664.12,-29.044), 232.493, 100.0, 233.21303341080153, -124.2, -124.2, -0.4082, -0.2888, -14.4393, -20.4085, -20.4085
227.94, (662.827,-30.568), 226.433, 100.0, 225.9530168071536, -133.56, -133.56, -0.3684, -0.3381, -16.9026, -18.4201, -18.4201
234.6, (661.618,-32.158), 233.093, 100.0, 233.75300746807685, -123.72, -123.72, -0.4109, -0.2849, -14.2463, -20.5437, -20.5437
224.64, (660.322,-33.678), 223.133, 100.0, 223.49299048977323, -134.22, -134.22, -0.3536, -0.3536, -17.6777, -17.6777, -17.6777
214.98, (658.783,-34.951), 213.473, 100.0, 213.47296889979918, -143.94, -143.94, -0.2866, -0.4097, -20.4838, -14.3323, -14.3323
206.04, (657.237,-35.87), 204.533, 100.0, 205.19295652569693, -152.22, -152.22, -0.2247, -0.4467, -22.3343, -11.233, -11.233
211.32, (655.453,-36.77), 209.8129, 100.0, 209.0329369393332, -150.12, -150.12, -0.2541, -0.4306, -21.5319, -12.7035, -12.7035
209.7, (653.774,-37.856), 208.1929, 100.0, 208.55291651202208, -148.86, -148.86, -0.2505, -0.4328, -21.6375, -12.5227, -12.5227
200.4, (651.964,-38.702), 198.8929, 100.0, 199.25289833688248, -158.22, -158.22, -0.1772, -0.4675, -23.3768, -8.8614, -8.8614
195.06, (650.234,-39.193), 193.5529, 100.0, 192.59288026512954, -166.92, -166.92, -0.1218, -0.4849, -24.2468, -6.0904, -6.0904
200.82, (648.35,-39.859), 199.3129, 100.0, 200.03285539890544, -157.44, -157.44, -0.1836, -0.4651, -23.254, -9.1788, -9.1788
202.08, (646.46,-40.512), 200.5728, 100.0, 200.2128371974018, -159.3, -159.3, -0.185, -0.4645, -23.2251, -9.2518, -9.2518
208.02, (644.654,-41.367), 206.5128, 100.0, 206.51282293902514, -153, -153, -0.2349, -0.4414, -22.0696, -11.7445, -11.7445
214.08, (643.141,-42.34), 212.5728, 100.0, 213.23280743782047, -143.94, -143.94, -0.2849, -0.4109, -20.5437, -14.2463, -14.2463
204.48, (641.396,-43.312), 202.9728, 100.0, 203.63278845309318, -154.2, -154.2, -0.2124, -0.4526, -22.6318, -10.6208, -10.6208
194.4, (639.512,-43.977), 192.8928, 100.0, 193.25276980861756, -164.16, -164.16, -0.1274, -0.4835, -24.175, -6.3693, -6.3693
203.82, (637.625,-44.632), 202.3128, 100.0, 202.31275702418475, -157.32, -157.32, -0.2019, -0.4574, -22.8705, -10.0966, -10.0966
195.12, (635.932,-45.236), 193.6127, 100.0, 194.03274080922085, -163.26, -163.26, -0.134, -0.4817, -24.0861, -6.6978, -6.6978
205.32, (634.057,-45.924), 203.8127, 100.0, 203.45272692550753, -156.12, -156.12, -0.211, -0.4533, -22.6651, -10.5496, -10.5496
213.06, (632.333,-46.934), 211.5527, 100.0, 211.5527097173979, -145.86, -145.86, -0.2728, -0.419, -20.9525, -13.6379, -13.6379
204.9, (630.562,-47.86), 203.3927, 100.0, 203.3926917807871, -155.94, -155.94, -0.2105, -0.4535, -22.6761, -10.5259, -10.5259
214.8, (629.006,-48.761), 213.2927, 100.0, 212.8726690531653, -146.82, -146.82, -0.2823, -0.4127, -20.6328, -14.117, -14.117
224.7, (627.461,-50.026), 223.1927, 100.0, 222.53265205042558, -137.1, -137.1, -0.3476, -0.3594, -17.9714, -17.379, -17.379
233.7, (626.142,-51.526), 232.1926, 100.0, 231.83263128415584, -127.68, -127.68, -0.4011, -0.2985, -14.9266, -20.0548, -20.0548
225.9, (625.012,-52.925), 224.3926, 100.0, 225.41261885575432, -131.88, -131.88, -0.3652, -0.3415, -17.0755, -18.26, -18.26
215.94, (623.513,-54.245), 214.4326, 100.0, 215.15260827072575, -142.32, -142.32, -0.2985, -0.4011, -20.0548, -14.9266, -14.9266
222.9, (621.944,-55.481), 221.3926, 100.0, 221.0325878527653, -138.24, -138.24, -0.3381, -0.3684, -18.4201, -16.9026, -16.9026
226.08, (620.575,-56.938), 224.5726, 100.0, 224.5725735413787, -132.78, -132.78, -0.3602, -0.3468, -17.3413, -18.0077, -18.0077
222.42, (619.234,-58.138), 220.9126, 100.0, 220.25256123457615, -139.26, -139.26, -0.333, -0.373, -18.6485, -16.6503, -16.6503
224.46, (617.837,-59.568), 222.9525, 100.0, 222.9525392141042, -134.4, -134.4, -0.3502, -0.3569, -17.8435, -17.5103, -17.5103
221.28, (616.468,-60.736), 219.7725, 100.0, 219.11252419414245, -140.58, -140.58, -0.3255, -0.3795, -18.9761, -16.276, -16.276
220.02, (615.012,-62.105), 218.5125, 100.0, 219.47251256286287, -138, -138, -0.3279, -0.3775, -18.8735, -16.3949, -16.3949
210.06, (613.38,-63.257), 208.5525, 100.0, 208.91249872993126, -148.5, -148.5, -0.2532, -0.4312, -21.5584, -12.6584, -12.6584
199.62, (611.566,-64.092), 198.1125, 100.0, 198.4724844686766, -158.94, -158.94, -0.1708, -0.4699, -23.4953, -8.5423, -8.5423
199.62, (609.846,-64.62), 198.1125, 100.0, 197.0924650240608, -162.42, -162.42, -0.1595, -0.4739, -23.6942, -7.974, -7.974
209.52, (608.024,-65.44), 208.0125, 100.0, 207.29245328474067, -152.34, -152.34, -0.2409, -0.4382, -21.9077, -12.0438, -12.0438
210.84, (606.342,-66.52), 209.3324, 100.0, 210.0524340083695, -147.42, -147.42, -0.2617, -0.426, -21.3023, -13.0848, -13.0848
200.52, (604.541,-67.385), 199.0124, 100.0, 199.67242104862385, -158.1, -158.1, -0.1806, -0.4662, -23.3112, -9.0325, -9.0325
190.8, (602.616,-67.916), 189.2924, 100.0, 189.2923993512276, -167.88, -167.88, -0.0937, -0.4911, -24.5572, -4.6845, -4.6845
188.28, (600.632,-68.162), 186.7724, 100.0, 186.77238801236393, -172.8, -172.8, -0.072, -0.4948, -24.7394, -3.6003, -3.6003
198.48, (598.694,-68.647), 196.9724, 100.0, 196.97237299123697, -162.24, -162.24, -0.1585, -0.4742, -23.7109, -7.9243, -7.9243
201.6, (597.035,-69.342), 200.0924, 100.0, 201.17235839191244, -156.48, -156.48, -0.1928, -0.4613, -23.0668, -9.6396, -9.6396
191.4, (595.124,-69.922), 189.8923, 100.0, 190.61234364541477, -166.86, -166.86, -0.105, -0.4889, -24.4428, -5.249, -5.249
181.68, (593.141,-70.167), 180.1723, 100.0, 180.83232033851885, -176.52, -176.52, -0.0204, -0.4996, -24.9792, -1.0207, -1.0207
172.14, (591.146,-70.063), 170.6323, 100.0, 170.9322969537774, 173.52, 173.52, 0.0658, -0.4957, -24.7827, 3.2891, 3.2891
165.36, (589.391,-69.67), 163.8523, 100.0, 162.6522809987122, 164.16, 164.16, 0.1365, -0.481, -24.0507, 6.8238, 6.3186
175.2, (587.426,-69.317), 173.6923, 100.0, 173.0322652966692, 173.46, 173.46, 0.0476, -0.4977, -24.8866, 2.3788, 2.3788
183, (585.428,-69.322), 181.4923, 100.0, 181.7922510730025, -175.98, -175.98, -0.0288, -0.4992, -24.9585, -1.4391, -1.4391
172.8, (583.432,-69.24), 171.2922, 100.0, 171.29223701136564, 173.88, 173.88, 0.0627, -0.4961, -24.8029, 3.1333, 3.1333
174, (581.655,-68.958), 172.4922, 100.0, 171.71221943368806, 172.5, 172.5, 0.059, -0.4965, -24.8252, 2.9514, 2.9514
173.76, (579.66,-68.831), 172.2522, 100.0, 172.61219884808017, 175.2, 175.2, 0.0512, -0.4974, -24.8685, 2.5611, 2.5611
180.96, (577.666,-68.702), 179.4522, 100.0, 179.4521841702505, 179.76, 179.76, -0.0084, -0.4999, -24.9965, -0.4189, -0.4189
173.94, (575.869,-68.669), 172.4322, 100.0, 173.51216673858042, 175.8, 175.8, 0.0434, -0.4981, -24.9056, 2.1702, 2.1702
164.1, (573.907,-68.291), 162.5921, 100.0, 162.9521468475353, 165.42, 165.42, 0.134, -0.4817, -24.0861, 6.6978, 6.6978
159.3, (572.002,-67.686), 157.7921, 100.0, 157.79213518856926, 160.44, 160.44, 0.1767, -0.4677, -23.3861, 8.8369, 8.8369
149.16, (570.204,-66.814), 147.6521, 100.0, 148.37212553202122, 150.66, 150.66, 0.2509, -0.4325, -21.6244, 12.5453, 12.5453
138.96, (568.586,-65.643), 137.4521, 100.0, 138.17210460455348, 140.46, 140.46, 0.3235, -0.3812, -19.0611, 16.1764, 16.1764
130.62, (567.198,-64.206), 129.1121, 100.0, 129.1120887670963, 130.5, 130.5, 0.3795, -0.3255, -16.276, 18.9761, 18.9761
139.92, (565.903,-62.959), 138.4121, 100.0, 138.71207248126765, 139.5, 139.5, 0.3199, -0.3843, -19.2127, 15.996, 15.996
129.6, (564.496,-61.541), 128.0921, 100.0, 128.4520554059326, 131.1, 131.1, 0.3832, -0.3211, -16.0563, 19.1623, 19.1623
138.9, (563.101,-60.112), 137.392, 100.0, 137.39204397172435, 137.82, 137.82, 0.3287, -0.3768, -18.8391, 16.4344, 16.4344
134.04, (561.814,-58.856), 132.532, 100.0, 131.75203206616067, 132.54, 132.54, 0.3641, -0.3427, -17.1328, 18.2063, 18.2063
144.42, (560.304,-57.548), 142.912, 100.0, 142.1920174761006, 142.74, 142.74, 0.296, -0.403, -20.1482, 14.8003, 14.8003
154.14, (558.585,-56.53), 152.632, 100.0, 152.21200344431145, 152.94, 152.94, 0.2214, -0.4483, -22.416, 11.069, 11.069
147, (556.83,-55.577), 145.492, 100.0, 145.4919886580444, 148.14, 148.14, 0.2723, -0.4193, -20.9668, 13.616, 13.616
137.58, (555.403,-54.483), 136.072, 100.0, 136.79198033771775, 139.62, 139.62, 0.3326, -0.3733, -18.666, 16.6308, 16.6308
127.56, (554.046,-53.017), 126.052, 100.0, 126.4719672101848, 129.18, 129.18, 0.3941, -0.3077, -15.3847, 19.7056, 19.7056
132.72, (552.933,-51.604), 131.212, 100.0, 130.4919522942216, 130.86, 130.86, 0.3716, -0.3346, -16.7283, 18.5786, 18.5786
141.54, (551.48,-50.233), 140.0319, 100.0, 139.25193216277228, 139.68, 139.68, 0.3163, -0.3873, -19.3626, 15.8143, 15.8143
151.74, (549.813,-49.132), 150.2319, 100.0, 149.81191426602396, 150.24, 150.24, 0.24, -0.4387, -21.9328, 11.9979, 11.9979
162.06, (547.976,-48.347), 160.5519, 100.0, 159.83189359000536, 160.56, 160.56, 0.16, -0.4737, -23.6858, 7.9988, 7.9988
159.84, (546.251,-47.837), 158.3319, 100.0, 159.71188251024856, 162, 162, 0.161, -0.4734, -23.669, 8.0484, 8.0484
149.7, (544.438,-46.999), 148.1919, 100.0, 148.91186732374757, 151.56, 151.56, 0.2468, -0.4348, -21.7417, 12.341, 12.341
156.66, (542.674,-46.059), 155.1519, 100.0, 154.79185265715802, 155.22, 155.22, 0.201, -0.4578, -22.8916, 10.0487, 10.0487
159.66, (540.83,-45.287), 158.1518, 100.0, 157.8518383822654, 158.22, 158.22, 0.1762, -0.4679, -23.3953, 8.8124, 8.8124
169.86, (539.097,-44.81), 168.3518, 100.0, 167.15182568720343, 167.82, 167.82, 0.0983, -0.4902, -24.5119, 4.9158, 4.9158
171.18, (537.113,-44.562), 169.6718, 100.0, 170.3318077185168, 172.86, 172.86, 0.071, -0.4949, -24.7469, 3.5484, 3.5484
161.1, (535.173,-44.087), 159.5918, 100.0, 160.25179415032997, 162.9, 162.9, 0.1565, -0.4749, -23.7438, 7.825, 7.825
158.94, (533.322,-43.33), 157.4318, 100.0, 157.43178113190442, 157.8, 157.8, 0.1797, -0.4666, -23.3301, 8.9836, 8.9836
151.68, (531.671,-42.617), 150.1718, 100.0, 150.89176936981113, 153.48, 153.48, 0.2316, -0.4431, -22.1551, 11.5824, 11.5824
158.64, (529.88,-41.732), 157.1318, 100.0, 156.41175765316666, 157.14, 157.14, 0.188, -0.4633, -23.1665, 9.3975, 9.3975
162.78, (527.971,-41.14), 161.2717, 100.0, 161.6317379830074, 164.28, 164.28, 0.145, -0.4785, -23.9254, 7.2509, 7.2509
161.64, (526.284,-40.515), 160.1317, 100.0, 159.05172215556036, 159.54, 159.54, 0.1664, -0.4715, -23.5748, 8.3205, 8.3205
170.7, (524.345,-40.033), 169.1917, 100.0, 168.47170452524722, 168.84, 168.84, 0.087, -0.4924, -24.6187, 4.3498, 4.3498
174.18, (522.355,-39.839), 172.6717, 100.0, 172.67169277300297, 175.32, 175.32, 0.0507, -0.4974, -24.8711, 2.5351, 2.5351
163.8, (520.59,-39.494), 162.2917, 100.0, 163.37167458687364, 165.66, 165.66, 0.1304, -0.4827, -24.1345, 6.521, 6.521
154.14, (518.724,-38.784), 152.6317, 100.0, 153.41165558845847, 155.64, 155.64, 0.2119, -0.4529, -22.6429, 10.5971, 10.5971
163.74, (516.862,-38.06), 162.2316, 100.0, 161.87163789574012, 162.24, 162.24, 0.143, -0.4791, -23.9556, 7.1506, 7.1506
173.82, (514.901,-37.684), 172.3116, 100.0, 172.31162620273176, 172.74, 172.74, 0.0538, -0.4971, -24.8547, 2.6913, 2.6913
164.58, (512.938,-37.313), 163.0716, 100.0, 163.0716088129586, 165.66, 165.66, 0.1329, -0.482, -24.1001, 6.6473, 6.6473
154.5, (511.255,-36.679), 152.9916, 100.0, 153.71159796706573, 156.36, 156.36, 0.2096, -0.454, -22.6981, 10.4784, 10.4784
144.72, (509.53,-35.673), 143.2116, 100.0, 143.57158374707078, 146.22, 146.22, 0.2862, -0.41, -20.4988, 14.3108, 14.3108
135.18, (508.15,-34.52), 133.6716, 100.0, 134.69157175233426, 137.22, 137.22, 0.3461, -0.3609, -18.044, 17.3036, 17.3036
140.58, (506.715,-33.129), 139.0716, 100.0, 138.29155517370504, 138.66, 138.66, 0.3227, -0.3819, -19.0949, 16.1364, 16.1364
150.06, (505.069,-31.997), 148.5515, 100.0, 147.8315388437454, 148.92, 148.92, 0.255, -0.4301, -21.5052, 12.7486, 12.7486
160.02, (503.255,-31.16), 158.5115, 100.0, 158.5115211283013, 158.94, 158.94, 0.1708, -0.4699, -23.4953, 8.5423, 8.5423
170.28, (501.518,-30.698), 168.7715, 100.0, 167.7515031102222, 168.18, 168.18, 0.0932, -0.4912, -24.5621, 4.6588, 4.6588
180.42, (499.528,-30.528), 178.9115, 100.0, 178.55148416146324, 178.98, 178.98, -0.0005, -0.5, -25, -0.0262, -0.0262
190.44, (497.737,-30.692), 188.9315, 100.0, 188.09147342172665, -171.48, -171.48, -0.0834, -0.493, -24.6499, -4.1692, -4.1692
200.4, (495.809,-31.212), 198.8915, 100.0, 198.1114599193135, -161.46, -161.46, -0.1679, -0.471, -23.5485, -8.3945, -8.3945
210.9, (494,-32.061), 209.3914, 100.0, 208.191441354153, -151.44, -151.44, -0.2477, -0.4343, -21.7158, -12.3865, -12.3865
220.62, (492.376,-33.223), 219.1114, 100.0, 218.75142434222784, -140.82, -140.82, -0.3231, -0.3816, -19.078, -16.1564, -16.1564
230.94, (490.985,-34.655), 229.4314, 100.0, 229.01140592788434, -130.56, -130.56, -0.3859, -0.3179, -15.8952, -19.2962, -19.2962
237.3, (489.863,-36.309), 235.7914, 100.0, 235.79139127934678, -121.68, -121.68, -0.4208, -0.2701, -13.506, -21.0378, -21.0378
227.46, (488.762,-37.731), 225.9514, 100.0, 226.97137540893507, -130.8, -130.8, -0.3744, -0.3314, -16.572, -18.7181, -18.7181
217.32, (487.294,-39.085), 215.8114, 100.0, 216.41136322893408, -140.94, -140.94, -0.3073, -0.3944, -19.7217, -15.364, -15.364
217.38, (485.653,-40.227), 215.8713, 100.0, 215.51134286901043, -144.06, -144.06, -0.301, -0.3992, -19.9606, -15.0523, -15.0523
218.1, (484.28,-41.39), 216.5913, 100.0, 217.61132946136652, -139.86, -139.86, -0.3155, -0.3879, -19.3957, -15.7737, -15.7737
216.96, (482.743,-42.669), 215.4513, 100.0, 215.8713145645248, -141.54, -141.54, -0.3035, -0.3973, -19.8657, -15.1775, -15.1775
217.38, (481.098,-43.805), 215.8713, 100.0, 215.5113018889246, -144.12, -144.12, -0.301, -0.3992, -19.9606, -15.0523, -15.0523
227.7, (479.628,-45.158), 226.1913, 100.0, 225.83128715510568, -133.74, -133.74, -0.3677, -0.3388, -16.9412, -18.3847, -18.3847
219.48, (478.2,-46.554), 217.9713, 100.0, 218.33126829647637, -139.14, -139.14, -0.3203, -0.3839, -19.1959, -16.0161, -16.0161
209.88, (476.723,-47.58), 208.3713, 100.0, 209.33125707717002, -148.08, -148.08, -0.2563, -0.4293, -21.4651, -12.8161, -12.8161
199.86, (474.917,-48.432), 198.3512, 100.0, 199.07123899301726, -158.28, -158.28, -0.1758, -0.4681, -23.4046, -8.7879, -8.7879
205.14, (473.046,-49.136), 203.6312, 100.0, 202.911225141281, -156.3, -156.3, -0.2067, -0.4553, -22.7635, -10.3356, -10.3356
215.52, (471.322,-50.143), 214.0112, 100.0, 213.2912113626712, -145.98, -145.98, -0.2854, -0.4106, -20.5287, -14.2678, -14.2678
220.74, (469.789,-51.425), 219.2312, 100.0, 219.65118732464774, -137.76, -137.76, -0.3291, -0.3764, -18.8219, -16.4541, -16.4541
214.86, (468.334,-52.483), 213.3512, 100.0, 212.93117236683736, -146.64, -146.64, -0.2828, -0.4124, -20.618, -14.1386, -14.1386
213.06, (466.722,-53.665), 211.5512, 100.0, 211.91115427994407, -145.86, -145.86, -0.2754, -0.4173, -20.8664, -13.7693, -13.7693
203.04, (464.952,-54.591), 201.5311, 100.0, 201.53113627679284, -155.88, -155.88, -0.1957, -0.4601, -23.0058, -9.7843, -9.7843
204.24, (463.272,-55.235), 202.7311, 100.0, 202.01111700853912, -157.62, -157.62, -0.1995, -0.4585, -22.923, -9.9767, -9.9767
196.32, (461.413,-55.966), 194.8111, 100.0, 195.23110170725437, -162.12, -162.12, -0.144, -0.4788, -23.9405, -7.2007, -7.2007
187.08, (459.655,-56.345), 185.5711, 100.0, 186.71107895521942, -171.06, -171.06, -0.0715, -0.4949, -24.7432, -3.5744, -3.5744
177.42, (457.659,-56.43), 175.9111, 100.0, 176.63105462942397, 179.16, 179.16, 0.0162, -0.4997, -24.9868, 0.8114, 0.8114
167.76, (455.679,-56.168), 166.251, 100.0, 166.6110354018846, 169.14, 169.14, 0.1029, -0.4893, -24.4645, 5.1466, 5.1466
157.38, (453.777,-55.559), 155.871, 100.0, 156.23102208190906, 158.76, 158.76, 0.1894, -0.4627, -23.1369, 9.4703, 9.4703
152.64, (452.172,-54.747), 151.131, 100.0, 150.11100585773556, 150.54, 150.54, 0.2377, -0.4399, -21.9954, 11.8829, 11.8829
158.46, (450.333,-53.965), 156.951, 100.0, 157.6709881998434, 160.38, 160.38, 0.1777, -0.4674, -23.3675, 8.8858, 8.8858
158.1, (448.51,-53.144), 156.591, 100.0, 155.8709730381342, 156.42, 156.42, 0.1923, -0.4615, -23.0769, 9.6154, 9.6154
160.26, (446.613,-52.515), 158.751, 100.0, 159.4109576727181, 161.94, 161.94, 0.1634, -0.4725, -23.6266, 8.1722, 8.1722
157.26, (444.775,-51.728), 155.7509, 100.0, 156.1109398624983, 156.78, 156.78, 0.1904, -0.4623, -23.117, 9.5187, 9.5187
147.6, (443.184,-50.89), 146.0909, 100.0, 146.510926965662, 149.16, 149.16, 0.2648, -0.4241, -21.2058, 13.2406, 13.2406
137.88, (441.584,-49.694), 136.3709, 100.0, 137.09090911578093, 139.62, 139.62, 0.3307, -0.3751, -18.7528, 16.5328, 16.5328
132.12, (440.21,-48.243), 130.6109, 100.0, 129.89089661264163, 130.32, 130.32, 0.3751, -0.3307, -16.5328, 18.7528, 18.7528
138.24, (438.758,-46.871), 136.7309, 100.0, 137.09087728596722, 139.62, 139.62, 0.3307, -0.3751, -18.7528, 16.5328, 16.5328
129.78, (437.395,-45.411), 128.2709, 100.0, 127.91085685680926, 129.42, 129.42, 0.3863, -0.3175, -15.875, 19.3128, 19.3128
139.44, (435.98,-44.001), 137.9308, 100.0, 137.93083745699647, 138.72, 138.72, 0.3251, -0.3799, -18.9931, 16.2561, 16.2561
129.6, (434.72,-42.718), 128.0908, 100.0, 128.7508228001221, 131.34, 131.34, 0.3816, -0.3231, -16.1564, 19.078, 19.078
137.1, (433.379,-41.237), 135.5908, 100.0, 134.8708080742257, 135.36, 135.36, 0.3449, -0.362, -18.0983, 17.2468, 17.2468
147.3, (431.803,-40.01), 145.7908, 100.0, 145.01078864281408, 145.8, 145.8, 0.2758, -0.417, -20.852, 13.7911, 13.7911
157.86, (430.033,-39.085), 156.3508, 100.0, 155.57077225204307, 156.06, 156.06, 0.1947, -0.4605, -23.0262, 9.7361, 9.7361
167.7, (428.124,-38.498), 166.1908, 100.0, 165.89075573591015, 166.68, 166.68, 0.1091, -0.488, -24.3979, 5.4536, 5.4536
177.78, (426.141,-38.261), 176.2707, 100.0, 176.27073992475087, 176.64, 176.64, 0.0194, -0.4996, -24.9812, 0.9684, 0.9684
188.16, (424.345,-38.354), 186.6507, 100.0, 185.5107299262824, -174.12, -174.12, -0.0611, -0.4963, -24.8126, -3.0554, -3.0554
198.18, (422.398,-38.8), 196.6707, 100.0, 196.25071482163693, -163.62, -163.62, -0.1525, -0.4762, -23.8086, -7.6258, -7.6258
208.26, (420.564,-39.591), 206.7507, 100.0, 206.3906954150854, -152.82, -152.82, -0.234, -0.4419, -22.0941, -11.6982, -11.6982
218.34, (418.902,-40.698), 216.8307, 100.0, 216.83068288563985, -142.74, -142.74, -0.3102, -0.3922, -19.6086, -15.5082, -15.5082
224.64, (417.523,-41.853), 223.1307, 100.0, 221.9906698226504, -137.22, -137.22, -0.3442, -0.3627, -18.1344, -17.2089, -17.2089
220.32, (416.096,-43.253), 218.8107, 100.0, 219.5306522107323, -138.3, -138.3, -0.3283, -0.3771, -18.8563, -16.4146, -16.4146
210.54, (414.466,-44.408), 209.0306, 100.0, 209.4506393403362, -148.26, -148.26, -0.2572, -0.4288, -21.4382, -12.861, -12.861
200.76, (412.66,-45.262), 199.2506, 100.0, 199.25062481509607, -158.04, -158.04, -0.1772, -0.4675, -23.3768, -8.8614, -8.8614
191.04, (410.93,-45.751), 189.5306, 100.0, 190.31060794148024, -167.1, -167.1, -0.1024, -0.4894, -24.4699, -5.1209, -5.1209
181.26, (408.944,-45.968), 179.7506, 100.0, 180.4705939670595, -177.3, -177.3, -0.0173, -0.4997, -24.9851, -0.8638, -0.8638
171.72, (406.951,-45.835), 170.2106, 100.0, 170.21057648713196, 172.44, 172.44, 0.072, -0.4948, -24.7394, 3.6003, 3.6003
161.64, (405.011,-45.362), 160.1306, 100.0, 160.13055818851942, 162.78, 162.78, 0.1575, -0.4745, -23.7274, 7.8747, 7.8747
151.98, (403.36,-44.649), 150.4705, 100.0, 151.1905432382411, 153.9, 153.9, 0.2293, -0.4443, -22.2154, 11.4662, 11.4662
142.02, (401.684,-43.562), 140.5105, 100.0, 141.17052971544337, 143.82, 143.82, 0.3031, -0.3976, -19.8815, 15.1567, 15.1567
141.78, (400.076,-42.374), 140.2705, 100.0, 140.6305139033096, 143.22, 143.22, 0.3069, -0.3948, -19.7378, 15.3434, 15.3434
139.92, (398.583,-41.044), 138.4105, 100.0, 137.99049881387387, 138.78, 138.78, 0.3247, -0.3802, -19.0101, 16.2362, 16.2362
149.64, (396.941,-39.906), 148.1305, 100.0, 148.13048371703422, 148.92, 148.92, 0.2527, -0.4314, -21.5717, 12.6358, 12.6358
139.56, (395.479,-38.861), 138.0505, 100.0, 138.77046806142852, 141.36, 141.36, 0.3195, -0.3846, -19.2294, 15.9759, 15.9759
148.86, (393.861,-37.689), 147.3505, 100.0, 147.35045063156562, 147.78, 147.78, 0.2586, -0.428, -21.3977, 12.9283, 12.9283
140.46, (392.376,-36.675), 138.9504, 100.0, 140.09043559392282, 142.32, 142.32, 0.3106, -0.3918, -19.5923, 15.5287, 15.5287
146.64, (390.807,-35.437), 145.1304, 100.0, 144.4704199568112, 144.78, 144.78, 0.2797, -0.4144, -20.7211, 13.9871, 13.9871
156.78, (389.051,-34.486), 155.2704, 100.0, 154.55040702161853, 154.98, 154.98, 0.2029, -0.457, -22.8493, 10.1445, 10.1445
166.62, (387.153,-33.864), 165.1104, 100.0, 165.1103880233371, 165.54, 165.54, 0.1157, -0.4864, -24.3214, 5.7852, 5.7852
177, (385.373,-33.61), 175.4904, 100.0, 174.41037634294287, 175.14, 175.14, 0.0356, -0.4987, -24.9366, 1.7787, 1.7787
186.84, (383.377,-33.667), 185.3304, 100.0, 184.91035994569833, -174.66, -174.66, -0.0559, -0.4969, -24.8432, -2.7954, -2.7954
196.92, (381.424,-34.087), 195.4103, 100.0, 195.4103376430167, -164.16, -164.16, -0.1455, -0.4784, -23.9178, -7.2759, -7.2759
207.24, (379.759,-34.763), 205.7303, 100.0, 205.01032398873414, -154.62, -154.62, -0.2233, -0.4474, -22.3695, -11.1628, -11.1628
217.2, (378.067,-35.825), 215.6903, 100.0, 215.2703022343266, -144.24, -144.24, -0.2994, -0.4005, -20.0235, -14.9686, -14.9686
227.4, (376.591,-37.171), 225.8903, 100.0, 225.59028831952807, -134.1, -134.1, -0.3663, -0.3404, -17.018, -18.3136, -18.3136
236.46, (375.355,-38.741), 234.9503, 100.0, 234.65027223368006, -124.56, -124.56, -0.4153, -0.2784, -13.9219, -20.7649, -20.7649
231.06, (374.339,-40.225), 229.5503, 100.0, 230.21025151839385, -127.2, -127.2, -0.3925, -0.3098, -15.4876, -19.6248, -19.6248
221.4, (372.964,-41.674), 219.8902, 100.0, 220.61023274762928, -136.8, -136.8, -0.3353, -0.3709, -18.5435, -16.7671, -16.7671
211.86, (371.356,-42.859), 210.3502, 100.0, 210.350218855233, -146.94, -146.94, -0.2639, -0.4247, -21.2335, -13.1961, -13.1961
201.9, (369.751,-43.67), 200.3902, 100.0, 201.59020198646783, -156.18, -156.18, -0.1962, -0.4599, -22.9955, -9.8084, -9.8084
200.1, (367.856,-44.308), 198.5902, 100.0, 198.23018183539617, -161.28, -161.28, -0.1689, -0.4706, -23.5309, -8.4438, -8.4438
202.92, (366.026,-45.112), 201.4102, 100.0, 201.41016290554543, -156, -156, -0.1947, -0.4605, -23.0262, -9.7361, -9.7361
193.02, (364.314,-45.661), 191.5102, 100.0, 192.29015040435104, -165.18, -165.18, -0.1193, -0.4856, -24.2784, -5.9633, -5.9633
183.36, (362.337,-45.949), 181.8501, 100.0, 182.51013791175677, -175.26, -175.26, -0.0351, -0.4988, -24.9385, -1.7526, -1.7526
173.22, (360.341,-45.88), 171.7101, 100.0, 172.07012259264377, 174.36, 174.36, 0.0559, -0.4969, -24.8432, 2.7954, 2.7954
166.92, (358.384,-45.475), 165.4101, 100.0, 165.05010608633876, 165.48, 165.48, 0.1162, -0.4863, -24.3153, 5.8107, 5.8107
172.98, (356.605,-45.211), 171.4701, 100.0, 172.19008838471098, 174.84, 174.84, 0.0549, -0.497, -24.849, 2.7434, 2.7434
163.38, (354.65,-44.799), 161.8701, 100.0, 162.59006738202484, 164.82, 164.82, 0.137, -0.4809, -24.0435, 6.849, 6.849
173.46, (352.695,-44.393), 171.95, 100.0, 171.65004718144073, 172.08, 172.08, 0.0595, -0.4964, -24.8221, 2.9774, 2.9774
163.62, (350.737,-43.998), 162.11, 100.0, 162.4700288872972, 165, 165, 0.138, -0.4806, -24.0291, 6.8993, 6.8993
154.62, (349.061,-43.346), 153.11, 100.0, 153.11001638742533, 155.64, 155.64, 0.2143, -0.4517, -22.5871, 10.7155, 10.7155
164.46, (347.196,-42.633), 162.95, 100.0, 162.29000070647533, 162.72, 162.72, 0.1395, -0.4801, -24.0073, 6.9748, 6.9748
174.36, (345.231,-42.272), 172.85, 100.0, 172.84998668284103, 173.34, 173.34, 0.0491, -0.4976, -24.879, 2.4569, 2.4569
164.4, (343.27,-41.894), 162.89, 100.0, 162.88996880671178, 165.48, 165.48, 0.1345, -0.4816, -24.0791, 6.723, 6.723
154.56, (341.589,-41.256), 153.05, 100.0, 153.82995339874583, 156.42, 156.42, 0.2086, -0.4544, -22.72, 10.4308, 10.4308
154.98, (339.819,-40.326), 153.4699, 100.0, 152.74993609862844, 153.12, 153.12, 0.2171, -0.4504, -22.5194, 10.8572, 10.8572
161.34, (337.959,-39.592), 159.8299, 100.0, 159.4699196710696, 159.9, 159.9, 0.1629, -0.4727, -23.6351, 8.1475, 8.1475
165.6, (336.024,-39.093), 164.0899, 100.0, 164.08989956055098, 166.62, 166.62, 0.1243, -0.4843, -24.2146, 6.2172, 6.2172
174.18, (334.259,-38.75), 172.6699, 100.0, 171.64988442300017, 172.14, 172.14, 0.0595, -0.4964, -24.8221, 2.9774, 2.9774
184.56, (332.262,-38.715), 183.0499, 100.0, 182.2698709420886, -177.18, -177.18, -0.033, -0.4989, -24.9456, -1.6481, -1.6481
194.4, (330.292,-39.045), 192.8899, 100.0, 192.46985410651453, -166.74, -166.74, -0.1208, -0.4852, -24.2595, -6.0396, -6.0396
204.66, (328.413,-39.722), 203.1498, 100.0, 203.14983596945052, -156.42, -156.42, -0.2086, -0.4544, -22.72, -10.4308, -10.4308
214.86, (326.853,-40.617), 213.3498, 100.0, 212.38982332163118, -147.18, -147.18, -0.2789, -0.415, -20.7503, -13.9436, -13.9436
224.82, (325.316,-41.892), 223.3098, 100.0, 223.0098116326252, -136.5, -136.5, -0.3506, -0.3565, -17.8251, -17.529, -17.529
