Rotation, Location, Gyro Rotation, Sensor Optical Flow, Battery Level, Yaw, Pitch, Roll, Vy, Vx, AccX, AccY
0, (0.21,0), 360, 100.0, 359.99999020107686, 0, 0, 0, 0.028, 1.4, 0, 0
0, (0.214,0), 360, 100.0, 359.99997764512875, 0, 0, 0, 0, 0, 0, 0
0, (0.214,0), 360, 100.0, 359.9999714703188, 0, 0, 0, 0, 0, 0, 0
0, (0.214,0), 360, 100.0, 359.99995363744176, 0, 0, 0, 0, 0, 0, 0
0, (0.214,0), 359.9999, 100.0, 359.9999404665739, 0, 0, 0, 0, 0, 0, 0
0, (0.214,0), 359.9999, 100.0, 359.9999249177471, 0, 0, 0, 0, 0, 0, 0
0, (0.214,0), 359.9999, 100.0, 359.99991057462415, 0, 0, 0, 0, 0, 0, 0
0, (0.214,0), 359.9999, 100.0, 359.99989855580355, 0, 0, 0, 0, 0, 0, 0
0, (0.214,0), 359.9999, 100.0, 359.9998800019891, 0, 0, 0, 0, 0, 0, 0
1.08, (0.214,0), 0.3599, 100.0, 359.9998585165038, 0, 0, 0, 0, 0, 0, 0
10.08, (0.614,0.053), 9.3598, 100.0, 9.359841819169189, 9.6, 9.6, 0.0326, 0.1831, 9.1564, 1.6277, 1.6277
20.22, (1.554,0.316), 19.4998, 100.0, 18.77982679232366, 18.36, 18.36, 0.1145, 0.3233, 16.1663, 5.7248, 5.7248
10.02, (3.251,0.773), 9.2998, 100.0, 10.139814302295521, 11.94, 11.94, 0.0942, 0.491, 24.5523, 4.7102, 4.7102
360.12, (5.241,0.941), 359.5202, 100.0, 359.88019746765923, 1.26, 1.26, 0.0021, 0.5, 24.9998, 0.1047, 0.1047
349.92, (7.032,0.789), 349.3202, 100.0, 350.34018244057035, -8.04, -8.04, -0.0787, 0.4938, 24.6881, -3.9367, -3.9367
339.78, (8.961,0.273), 339.1802, 100.0, 339.4801589971724, -18.78, -18.78, -0.1704, 0.4701, 23.5042, -8.5177, -8.5177
329.7, (10.763,-0.59), 329.1001, 100.0, 329.1001347641728, -29.22, -29.22, -0.2523, 0.4317, 21.5849, -12.6132, -12.6132
319.5, (12.226,-1.635), 318.9001, 100.0, 319.62011793653335, -38.7, -38.7, -0.3199, 0.3843, 19.2127, -15.996, -15.996
309.18, (13.626,-3.059), 308.5801, 100.0, 309.30010332423217, -49.02, -49.02, -0.3836, 0.3207, 16.0362, -19.1791, -19.1791
298.8, (14.74,-4.717), 298.5601, 100.0, 298.92008102540626, -59.7, -59.7, -0.4366, 0.2436, 12.1813, -21.8316, -21.8316
288.96, (15.468,-6.361), 288.7201, 100.0, 289.4400650162713, -69.24, -69.24, -0.4708, 0.1684, 8.4192, -23.5397, -23.5397
295.44, (16.173,-8.23), 295.2, 100.0, 294.8400452044502, -65.94, -65.94, -0.4529, 0.2119, 10.5971, -22.6429, -22.6429
292.5, (16.912,-9.87), 292.26, 100.0, 291.4800275348424, -68.82, -68.82, -0.4645, 0.185, 9.2518, -23.2251, -23.2251
299.64, (17.828,-11.645), 299.4, 100.0, 299.7600106875404, -59.04, -59.04, -0.433, 0.25, 12.5, -21.6506, -21.6506
300.12, (18.747,-13.421), 299.88, 100.0, 299.87999844826265, -60.96, -60.96, -0.4325, 0.2509, 12.5453, -21.6244, -21.6244
301.92, (19.717,-14.937), 301.68, 100.0, 300.7199842732061, -58.62, -58.62, -0.4288, 0.2572, 12.861, -21.4382, -21.4382
310.92, (20.908,-16.54), 310.68, 100.0, 310.2599700377449, -49.5, -49.5, -0.3802, 0.3247, 16.2362, -19.0101, -19.0101
320.82, (22.196,-17.795), 320.58, 100.0, 319.8599565812077, -41.04, -41.04, -0.3207, 0.3836, 19.1791, -16.0362, -16.0362
324.54, (23.742,-19.062), 324.2999, 100.0, 323.93993717211, -36.84, -36.84, -0.2926, 0.4054, 20.2715, -14.631, -14.631
334.86, (25.472,-20.06), 334.6199, 100.0, 334.6199241650354, -26.28, -26.28, -0.2124, 0.4526, 22.6318, -10.6208, -10.6208
344.7, (27.164,-20.668), 344.4599, 100.0, 344.0999056641321, -16.8, -16.8, -0.135, 0.4814, 24.072, -6.7482, -6.7482
349.68, (29.115,-21.107), 349.4399, 100.0, 349.0798862552258, -11.7, -11.7, -0.0927, 0.4913, 24.5669, -4.6331, -4.6331
352.86, (30.903,-21.305), 352.6199, 100.0, 353.3398721409241, -5.22, -5.22, -0.0559, 0.4969, 24.8432, -2.7954, -2.7954
357.3, (32.888,-21.543), 357.0599, 100.0, 356.7598523346673, -4.02, -4.02, -0.0262, 0.4993, 24.9657, -1.3084, -1.3084
353.46, (34.685,-21.615), 352.9798, 100.0, 353.6398316270402, -4.8, -4.8, -0.0512, 0.4974, 24.8685, -2.5611, -2.5611
343.86, (36.644,-22.006), 343.3798, 100.0, 343.6798156246418, -14.7, -14.7, -0.1365, 0.481, 24.0507, -6.8238, -6.8238
343.62, (38.347,-22.589), 343.1398, 100.0, 342.47979518655353, -18.18, -18.18, -0.1465, 0.4781, 23.9025, -7.326, -7.326
348.12, (40.297,-23.03), 347.6398, 100.0, 348.29978192838644, -11.22, -11.22, -0.0973, 0.4904, 24.5222, -4.8644, -4.8644
339.84, (42.207,-23.613), 339.3598, 100.0, 339.3597684417131, -20.88, -20.88, -0.1723, 0.4694, 23.4683, -8.6161, -8.6161
350.1, (43.945,-24.075), 349.6198, 100.0, 348.89975236899727, -11.7, -11.7, -0.0921, 0.4914, 24.5718, -4.6074, -4.6074
340.68, (45.88,-24.568), 340.1997, 100.0, 340.5597332702072, -18.18, -18.18, -0.1625, 0.4729, 23.6436, -8.1227, -8.1227
331.02, (47.521,-25.304), 330.5397, 100.0, 331.139718185146, -27.36, -27.36, -0.2377, 0.4399, 21.9954, -11.8829, -11.8829
324.48, (49.183,-26.412), 323.9997, 100.0, 322.9797018755003, -37.5, -37.5, -0.2977, 0.4017, 20.086, -14.8846, -14.8846
333.42, (50.898,-27.435), 332.9397, 100.0, 332.51968322150026, -27.36, -27.36, -0.227, 0.4455, 22.2752, -11.3498, -11.3498
342.6, (52.76,-28.16), 342.1197, 100.0, 341.7596684211332, -17.4, -17.4, -0.1525, 0.4762, 23.8086, -7.6258, -7.6258
351.96, (54.714,-28.575), 351.4797, 100.0, 351.7796543435083, -8.16, -8.16, -0.0673, 0.4954, 24.7722, -3.3669, -3.3669
358.14, (56.5,-28.782), 357.6596, 100.0, 356.63964348479686, -3.9, -3.9, -0.0251, 0.4994, 24.9684, -1.2561, -1.2561
4.38, (58.499,-28.771), 3.7796, 100.0, 3.059621695320969, 2.58, 2.58, 0.0319, 0.499, 24.949, 1.5959, 1.5959
5.22, (60.483,-28.519), 4.6196, 100.0, 5.339604231988756, 7.08, 7.08, 0.0517, 0.4973, 24.8658, 2.5872, 2.5872
3.18, (62.481,-28.452), 2.9396, 100.0, 2.639591768190814, 1.98, 1.98, 0.0251, 0.4994, 24.9684, 1.2561, 1.2561
12.96, (64.261,-28.201), 12.7196, 100.0, 11.699578033202439, 10.86, 10.86, 0.1034, 0.4892, 24.4591, 5.1722, 5.1722
15.06, (66.18,-27.639), 14.8196, 100.0, 15.659564654782349, 16.92, 16.92, 0.137, 0.4809, 24.0435, 6.849, 6.849
5.7, (68.147,-27.292), 5.4595, 100.0, 5.459547332292336, 6.06, 6.06, 0.0497, 0.4975, 24.8764, 2.483, 2.483
15.54, (69.912,-26.952), 15.2995, 100.0, 14.939533951251837, 14.1, 14.1, 0.1309, 0.4826, 24.1277, 6.5463, 6.5463
13.92, (71.864,-26.523), 13.6795, 100.0, 13.319520254595012, 12.48, 12.48, 0.1172, 0.4861, 24.3031, 5.8616, 5.8616
20.88, (73.765,-25.905), 20.6395, 100.0, 20.33949971059395, 19.5, 19.5, 0.1758, 0.4681, 23.4046, 8.7879, 8.7879
30.42, (75.385,-25.124), 30.1795, 100.0, 29.51948403767917, 29.1, 29.1, 0.2482, 0.4341, 21.7028, 12.4092, 12.4092
40.74, (77.013,-23.967), 40.4995, 100.0, 39.83946168129417, 38.88, 38.88, 0.3219, 0.3826, 19.1287, 16.0964, 16.0964
48, (78.411,-22.539), 47.7594, 100.0, 48.05944493489553, 49.38, 49.38, 0.3733, 0.3326, 16.6308, 18.666, 18.666
54.42, (79.692,-21.007), 54.1794, 100.0, 54.17943356023638, 53.28, 53.28, 0.4067, 0.2909, 14.546, 20.3326, 20.3326
55.86, (80.74,-19.544), 55.6194, 100.0, 54.8994147812284, 54, 54, 0.4103, 0.2858, 14.2893, 20.5138, 20.5138
58.38, (81.758,-17.823), 58.1394, 100.0, 58.499394669815786, 59.82, 59.82, 0.4274, 0.2595, 12.9731, 21.3705, 21.3705
67.92, (82.578,-16.223), 67.6794, 100.0, 66.95937364805307, 66.18, 66.18, 0.4609, 0.1938, 9.6879, 23.0466, 23.0466
58.98, (83.461,-14.432), 58.7394, 100.0, 58.739358702400594, 60.06, 60.06, 0.4285, 0.2577, 12.8834, 21.4247, 21.4247
67.44, (84.296,-12.839), 67.1993, 100.0, 66.1793482752892, 65.34, 65.34, 0.4583, 0.2, 10.0007, 22.9126, 22.9126
77.4, (84.907,-10.938), 77.1593, 100.0, 76.85933282009584, 75.96, 75.96, 0.4874, 0.1116, 5.5813, 24.369, 24.369
69.72, (85.446,-9.014), 69.4793, 100.0, 69.47931402754074, 70.8, 70.8, 0.469, 0.1733, 8.6652, 23.4502, 23.4502
59.82, (86.211,-7.387), 59.5793, 100.0, 60.53929615415938, 61.98, 61.98, 0.4364, 0.2441, 12.2041, 21.8188, 21.8188
49.98, (87.355,-5.75), 49.7393, 100.0, 50.099281676859384, 51.48, 51.48, 0.3849, 0.3191, 15.9558, 19.2461, 19.2461
40.02, (88.625,-4.477), 39.7793, 100.0, 40.559266784380014, 41.88, 41.88, 0.3267, 0.3785, 18.9249, 16.3355, 16.3355
34.68, (90.207,-3.254), 34.4393, 100.0, 34.73925055573915, 36.12, 36.12, 0.2866, 0.4097, 20.4838, 14.3323, 14.3323
33.6, (91.741,-2.315), 33.3592, 100.0, 32.339237496365065, 31.5, 31.5, 0.2692, 0.4213, 21.066, 13.4619, 13.4619
43.2, (93.306,-1.073), 42.9592, 100.0, 42.59921435887568, 41.76, 41.76, 0.34, 0.3666, 18.3314, 16.9988, 16.9988
48.9, (94.647,0.409), 48.6592, 100.0, 49.01919943271986, 50.4, 50.4, 0.3788, 0.3263, 16.3157, 18.942, 18.942
42.48, (95.938,1.66), 42.2392, 100.0, 41.51918437657189, 41.04, 41.04, 0.333, 0.373, 18.6485, 16.6503, 16.6503
50.16, (97.29,3.131), 49.9192, 100.0, 50.27916127230138, 51.3, 51.3, 0.3859, 0.3179, 15.8952, 19.2962, 19.2962
53.7, (98.462,4.496), 53.4591, 100.0, 52.1991444661785, 51.3, 51.3, 0.3964, 0.3048, 15.2398, 19.8179, 19.8179
50.94, (99.179,5.458), 50.6991, 100.0, 50.33913948009101, 51.66, 51.66, 0.3863, 0.3175, 15.875, 19.3128, 19.3128
60.3, (100.176,6.954), 60.0591, 100.0, 60.419126109893206, 59.52, 59.52, 0.4359, 0.245, 12.2498, 21.7932, 21.7932
55.62, (101.291,8.612), 55.3791, 100.0, 55.37910947613109, 54.48, 54.48, 0.4127, 0.2823, 14.117, 20.6328, 20.6328
61.14, (102.18,10.176), 60.8991, 100.0, 61.55909096684346, 62.88, 62.88, 0.4407, 0.2363, 11.8138, 22.0326, 22.0326
69.72, (103.03,11.983), 69.4791, 100.0, 69.47907558498375, 68.28, 68.28, 0.469, 0.1733, 8.6652, 23.4502, 23.4502
79.68, (103.498,13.72), 79.4391, 100.0, 78.65905759071022, 77.82, 77.82, 0.4906, 0.0963, 4.813, 24.5323, 24.5323
78.48, (103.797,15.696), 78.239, 100.0, 78.2390367000698, 79.56, 79.56, 0.4899, 0.0999, 4.9927, 24.4964, 24.4964
68.22, (104.325,17.415), 67.979, 100.0, 68.33901549141974, 69.66, 69.66, 0.4655, 0.1826, 9.13, 23.2732, 23.2732
58.26, (105.219,19.201), 58.019, 100.0, 58.43900069941673, 59.76, 59.76, 0.4271, 0.2599, 12.9954, 21.3569, 21.3569
66.06, (106.174,20.955), 65.819, 100.0, 65.81898502874506, 64.92, 64.92, 0.457, 0.2029, 10.1445, 22.8493, 22.8493
73.08, (106.831,22.63), 72.839, 100.0, 71.75897131158047, 71.22, 71.22, 0.4755, 0.1545, 7.7254, 23.7764, 23.7764
75.54, (107.374,24.554), 75.299, 100.0, 74.87895085242383, 74.04, 74.04, 0.4832, 0.1284, 6.4199, 24.1616, 24.1616
85.98, (107.688,26.527), 85.7389, 100.0, 85.37893104609002, 84.54, 84.54, 0.4985, 0.0382, 1.9093, 24.927, 24.927
95.64, (107.665,28.325), 95.3989, 100.0, 94.67892171035497, 94.14, 94.14, 0.4982, -0.0429, -2.1441, 24.9079, 24.9079
104.34, (107.305,30.289), 104.0989, 100.0, 104.09889855436673, 104.04, 104.04, 0.4844, -0.1238, -6.1919, 24.2211, 24.2211
94.44, (107.022,32.065), 94.1989, 100.0, 94.55888863373231, 96, 96, 0.4982, -0.0418, -2.0919, 24.9123, 24.9123
104.4, (106.69,34.034), 104.1589, 100.0, 104.15886593429435, 103.38, 103.38, 0.4843, -0.1243, -6.2172, 24.2146, 24.2146
97.32, (106.277,35.989), 97.0789, 100.0, 97.0788501748001, 98.7, 98.7, 0.4959, -0.0637, -3.1853, 24.7963, 24.7963
91.2, (106.112,37.781), 90.9588, 100.0, 92.03883049775932, 93.36, 93.36, 0.4996, -0.0199, -0.9946, 24.9802, 24.9802
81.78, (106.226,39.775), 81.5388, 100.0, 82.25881565392147, 83.52, 83.52, 0.4957, 0.0653, 3.2632, 24.7861, 24.7861
71.94, (106.681,41.72), 71.6988, 100.0, 72.05880129761371, 73.32, 73.32, 0.4763, 0.152, 7.6008, 23.8165, 23.8165
67.98, (107.364,43.384), 67.7388, 100.0, 66.65878658465141, 65.88, 65.88, 0.4599, 0.1962, 9.8084, 22.9955, 22.9955
72.36, (107.98,45.285), 72.1188, 100.0, 72.77876748178574, 74.1, 74.1, 0.4782, 0.146, 7.3009, 23.9102, 23.9102
74.46, (108.567,46.986), 74.2188, 100.0, 73.49875197617224, 72.54, 72.54, 0.48, 0.14, 6.9999, 24, 24
78.84, (109.02,48.934), 78.5987, 100.0, 77.93873455170063, 77.04, 77.04, 0.4894, 0.1024, 5.1209, 24.4699, 24.4699
88.92, (109.235,50.92), 88.6787, 100.0, 88.01872253189826, 87.12, 87.12, 0.4998, 0.0152, 0.7591, 24.9885, 24.9885
99, (109.096,52.912), 98.7587, 100.0, 98.45870426666899, 97.62, 97.62, 0.4942, -0.0756, -3.7815, 24.7123, 24.7123
105.18, (108.619,54.853), 104.9387, 100.0, 104.93869093405685, 106.14, 106.14, 0.4826, -0.1309, -6.5463, 24.1277, 24.1277
114.42, (108.021,56.548), 114.1787, 100.0, 113.4586758839025, 112.68, 112.68, 0.4578, -0.201, -10.0487, 22.8916, 22.8916
108, (107.296,58.41), 107.7587, 100.0, 107.45865772411246, 107.76, 107.76, 0.4763, -0.152, -7.6008, 23.8165, 23.8165
116.52, (106.51,60.246), 116.2786, 100.0, 116.27864219856397, 117.12, 117.12, 0.4474, -0.2233, -11.1628, 22.3695, 22.3695
106.44, (105.855,61.921), 106.1986, 100.0, 106.91863363814726, 108.24, 108.24, 0.4777, -0.1475, -7.376, 23.8871, 23.8871
96.3, (105.455,63.877), 96.0586, 100.0, 96.47861830352483, 97.74, 97.74, 0.4966, -0.0585, -2.9254, 24.8282, 24.8282
105.36, (105.14,65.648), 105.1186, 100.0, 103.97860454016046, 103.5, 103.5, 0.4847, -0.1228, -6.1411, 24.234, 24.234
115.56, (104.448,67.521), 115.3186, 100.0, 114.65858611540573, 113.82, 113.82, 0.4535, -0.2105, -10.5259, 22.6761, 22.6761
124.98, (103.432,69.241), 124.7386, 100.0, 124.73856566347874, 124.32, 124.32, 0.4097, -0.2866, -14.3323, 20.4838, 20.4838
114.84, (102.447,70.978), 114.5986, 100.0, 114.59855071010293, 115.98, 115.98, 0.4537, -0.21, -10.5021, 22.6871, 22.6871
104.64, (101.831,72.668), 104.3985, 100.0, 105.53854257332844, 106.86, 106.86, 0.4812, -0.136, -6.7986, 24.0578, 24.0578
94.98, (101.477,74.633), 94.7385, 100.0, 95.09852416795894, 96.36, 96.36, 0.4978, -0.0465, -2.3266, 24.8915, 24.8915
85.2, (101.476,76.631), 84.9585, 100.0, 85.31851006580479, 86.34, 86.34, 0.4985, 0.0387, 1.9354, 24.925, 24.925
75.36, (101.778,78.403), 75.1185, 100.0, 76.13849555054574, 77.52, 77.52, 0.4859, 0.1177, 5.887, 24.297, 24.297
65.04, (102.443,80.286), 64.7985, 100.0, 65.4584801489859, 66.72, 66.72, 0.4557, 0.2058, 10.2879, 22.7851, 22.7851
57.54, (103.387,82.048), 57.2985, 100.0, 57.658465482029854, 58.86, 58.86, 0.4236, 0.2657, 13.285, 21.178, 21.178
53.28, (104.458,83.494), 53.0385, 100.0, 52.31845774817363, 51.48, 51.48, 0.397, 0.304, 15.1983, 19.8498, 19.8498
60.78, (105.521,85.185), 60.5384, 100.0, 60.17843797903233, 60.06, 60.06, 0.4348, 0.2468, 12.341, 21.7417, 21.7417
69.3, (106.335,87.01), 69.0584, 100.0, 69.418419895268, 69.66, 69.66, 0.4688, 0.1738, 8.6898, 23.4412, 23.4412
64.5, (107.186,88.818), 64.2584, 100.0, 63.77840382253401, 63, 63, 0.4495, 0.219, 10.9514, 22.4737, 22.4737
70.08, (107.9,90.684), 69.8384, 100.0, 69.83839020553658, 71.1, 71.1, 0.4701, 0.1704, 8.5177, 23.5042, 23.5042
65.64, (108.643,92.323), 65.3984, 100.0, 64.67837498403402, 63.84, 63.84, 0.4529, 0.2119, 10.5971, 22.6429, 22.6429
75.54, (109.302,94.208), 75.2984, 100.0, 74.99835577841411, 74.22, 74.22, 0.4835, 0.1274, 6.3693, 24.175, 24.175
85.86, (109.616,96.181), 85.6183, 100.0, 85.25834330729371, 84.48, 84.48, 0.4985, 0.0392, 1.9615, 24.9229, 24.9229
95.46, (109.594,97.979), 95.2183, 100.0, 94.55832582406285, 93.72, 93.72, 0.4982, -0.0418, -2.0919, 24.9123, 24.9123
105.9, (109.226,99.942), 105.6583, 100.0, 105.35831120096265, 104.52, 104.52, 0.4816, -0.1345, -6.723, 24.0791, 24.0791
101.7, (108.725,101.67), 101.4583, 100.0, 102.53830050712745, 103.8, 103.8, 0.4876, -0.1106, -5.5302, 24.3807, 24.3807
91.74, (108.479,103.652), 91.4983, 100.0, 92.21828807005491, 93.54, 93.54, 0.4995, -0.0215, -1.073, 24.977, 24.977
95.04, (108.438,105.65), 94.7983, 100.0, 94.43826859079925, 93.6, 93.6, 0.4983, -0.0408, -2.0398, 24.9166, 24.9166
105.12, (108.123,107.42), 104.8783, 100.0, 104.15825285138733, 103.38, 103.38, 0.4843, -0.1243, -6.2172, 24.2146, 24.2146
113.7, (107.471,109.31), 113.4582, 100.0, 112.73823194534425, 111.78, 111.78, 0.4603, -0.1952, -9.7602, 23.016, 23.016
112.62, (106.613,111.115), 112.3782, 100.0, 112.37821623203142, 113.82, 113.82, 0.4615, -0.1923, -9.6154, 23.0769, 23.0769
102.9, (106.067,112.829), 102.6582, 100.0, 103.37820610007905, 104.76, 104.76, 0.4859, -0.1177, -5.887, 24.297, 24.297
92.7, (105.791,114.807), 92.4582, 100.0, 93.11819003826504, 94.02, 94.02, 0.4991, -0.0293, -1.4652, 24.957, 24.957
82.8, (105.874,116.802), 82.5582, 100.0, 82.55817404560455, 83.88, 83.88, 0.4961, 0.0627, 3.1333, 24.8029, 24.8029
81.3, (106.207,118.571), 81.0582, 100.0, 80.39815867259529, 79.62, 79.62, 0.4933, 0.0813, 4.0659, 24.6671, 24.6671
91.44, (106.336,120.564), 91.1981, 100.0, 90.83814500418448, 90, 90, 0.4999, -0.0094, -0.4712, 24.9956, 24.9956
94.02, (106.162,122.555), 93.7781, 100.0, 93.7781199470457, 95.04, 95.04, 0.4988, -0.0351, -1.7526, 24.9385, 24.9385
83.82, (106.221,124.552), 83.5781, 100.0, 83.57810418810993, 84.54, 84.54, 0.4971, 0.0538, 2.6913, 24.8547, 24.8547
73.86, (106.573,126.315), 73.6181, 100.0, 74.33809049574805, 75.6, 75.6, 0.482, 0.1329, 6.6473, 24.1001, 24.1001
70.08, (107.254,128.194), 69.8381, 100.0, 69.47807628958834, 68.64, 68.64, 0.469, 0.1733, 8.6652, 23.4502, 23.4502
80.58, (107.758,130.126), 80.3381, 100.0, 79.97806018498373, 79.14, 79.14, 0.4927, 0.0849, 4.2466, 24.6367, 24.6367
90.18, (107.909,131.918), 89.938, 100.0, 88.91804290179819, 88.38, 88.38, 0.4999, 0.0073, 0.3665, 24.9973, 24.9973
99.9, (107.737,133.908), 99.658, 100.0, 99.2980297580978, 98.46, 98.46, 0.4931, -0.0829, -4.1434, 24.6543, 24.6543
110.28, (107.208,135.834), 110.038, 100.0, 110.03801369159645, 108.9, 108.9, 0.469, -0.1733, -8.6652, 23.4502, 23.4502
109.98, (106.509,137.492), 109.738, 100.0, 110.45799557698338, 112.02, 112.02, 0.4677, -0.1767, -8.8369, 23.3861, 23.3861
100.56, (105.98,139.419), 100.318, 100.0, 101.03797814545342, 102.3, 102.3, 0.4903, -0.0978, -4.8901, 24.5171, 24.5171
90.78, (105.78,141.406), 90.538, 100.0, 91.19796711012373, 92.46, 92.46, 0.4998, -0.0126, -0.6283, 24.9921, 24.9921
91.8, (105.822,143.405), 91.558, 100.0, 91.2579506528895, 90.48, 90.48, 0.4998, -0.0131, -0.6544, 24.9914, 24.9914
91.44, (105.68,145.399), 91.1979, 100.0, 91.19793247378756, 92.52, 92.52, 0.4998, -0.0126, -0.6283, 24.9921, 24.9921
81.42, (105.796,147.194), 81.1779, 100.0, 81.89791767664087, 83.28, 83.28, 0.4953, 0.0684, 3.4188, 24.7651, 24.7651
71.46, (106.265,149.135), 71.2179, 100.0, 71.63789937071077, 72.66, 72.66, 0.4752, 0.1555, 7.7752, 23.7602, 23.7602
64.02, (106.973,150.788), 63.7779, 100.0, 62.75788475010826, 63.72, 63.72, 0.4455, 0.227, 11.3498, 22.2752, 22.2752
73.68, (107.692,152.651), 73.4379, 100.0, 73.37786939259263, 72.54, 72.54, 0.4797, 0.141, 7.0502, 23.9853, 23.9853
63.96, (108.424,154.51), 63.7179, 100.0, 63.71785233476573, 64.62, 64.62, 0.4492, 0.2195, 10.975, 22.4622, 22.4622
73.98, (109.071,156.187), 73.7378, 100.0, 72.65783714036914, 72.12, 72.12, 0.4779, 0.147, 7.351, 23.8948, 23.8948
67.2, (109.765,158.06), 66.9578, 100.0, 66.53782214012794, 65.7, 65.7, 0.4595, 0.1971, 9.8566, 22.9749, 22.9749
74.82, (110.378,159.961), 74.5778, 100.0, 74.93780731055172, 75.9, 75.9, 0.4834, 0.1279, 6.3946, 24.1684, 24.1684
65.16, (111.002,161.648), 64.9178, 100.0, 65.21779555768106, 66.66, 66.66, 0.4548, 0.2077, 10.3832, 22.7418, 22.7418
75.3, (111.684,163.525), 75.0578, 100.0, 74.63778049235079, 73.8, 73.8, 0.4827, 0.1304, 6.521, 24.1345, 24.1345
65.46, (112.356,165.406), 65.2178, 100.0, 65.63776650447441, 66.72, 66.72, 0.4563, 0.2043, 10.2162, 22.8173, 22.8173
55.68, (113.025,166.634), 55.4378, 100.0, 55.43775190606071, 59.94, 59.94, 0.413, 0.2819, 14.0954, 20.6475, 20.6475
63.36, (113.454,167.308), 63.1177, 100.0, 60.957746285131506, 58.92, 58.92, 0.4382, 0.2409, 12.0438, 21.9077, 21.9077
55.02, (114.453,169.038), 54.7777, 100.0, 55.13772895044619, 56.4, 56.4, 0.4115, 0.2841, 14.2033, 20.5735, 20.5735
44.88, (115.602,170.421), 44.6377, 100.0, 45.83771107203598, 47.16, 47.16, 0.3602, 0.3468, 17.3413, 18.0077, 18.0077
50.28, (117,171.849), 50.0377, 100.0, 49.37769501841778, 48.42, 48.42, 0.3809, 0.3239, 16.1964, 19.0441, 19.0441
45.6, (118.293,173.373), 45.3577, 100.0, 45.35768277935996, 46.68, 46.68, 0.3572, 0.3498, 17.4916, 17.8618, 17.8618
35.58, (119.656,174.546), 35.3377, 100.0, 36.35767216482653, 37.74, 37.74, 0.2981, 0.4014, 20.0704, 14.9056, 14.9056
36.78, (121.317,175.658), 36.5377, 100.0, 36.17765716156038, 35.28, 35.28, 0.2968, 0.4023, 20.1172, 14.8425, 14.8425
36.54, (122.71,176.798), 36.2976, 100.0, 37.077640082214415, 38.64, 38.64, 0.3031, 0.3976, 19.8815, 15.1567, 15.1567
27, (124.408,177.849), 26.7576, 100.0, 27.117620133426335, 28.44, 28.44, 0.2298, 0.4441, 22.2034, 11.4895, 11.4895
17.28, (126.074,178.526), 17.0376, 100.0, 17.757608376849234, 19.08, 19.08, 0.1545, 0.4755, 23.7764, 7.7254, 7.7254
7.08, (128.024,178.956), 6.8376, 100.0, 7.677590162348497, 8.94, 8.94, 0.0689, 0.4952, 24.7615, 3.4448, 3.4448
358.86, (130.02,179.047), 357.6624, 100.0, 358.0224123727055, 0.3, 0.3, -0.0068, 0.5, 24.9977, -0.3403, -0.3403
348.66, (132.006,178.827), 347.4624, 100.0, 347.8223988570643, -9.84, -9.84, -0.0952, 0.4908, 24.5423, -4.7617, -4.7617
352.92, (133.983,178.539), 351.7224, 100.0, 351.7223848239601, -6.06, -6.06, -0.0616, 0.4962, 24.8094, -3.0814, -3.0814
343.56, (135.741,178.161), 342.3624, 100.0, 343.08236811451815, -15.06, -15.06, -0.1355, 0.4813, 24.0649, -6.7734, -6.7734
336.6, (137.601,177.432), 335.4023, 100.0, 334.7423496889379, -24.84, -24.84, -0.2038, 0.4566, 22.828, -10.1923, -10.1923
343.92, (139.304,176.853), 342.7223, 100.0, 343.50233874830644, -15.18, -15.18, -0.1319, 0.4823, 24.1139, -6.5968, -6.5968
354.12, (141.263,176.468), 352.9223, 100.0, 352.50232389684527, -7.32, -7.32, -0.0549, 0.497, 24.849, -2.7434, -2.7434
344.52, (143.226,176.097), 343.3223, 100.0, 343.32230677665274, -14.4, -14.4, -0.1335, 0.4819, 24.0931, -6.6725, -6.6725
354.78, (145.192,175.751), 353.5823, 100.0, 353.58229215647196, -6.24, -6.24, -0.0455, 0.4979, 24.8963, -2.2745, -2.2745
4.92, (146.991,175.751), 3.7223, 100.0, 2.942275334104967, 3.06, 3.06, 0.0361, 0.4987, 24.9348, 1.8048, 1.8048
358.92, (148.986,175.859), 357.2377, 100.0, 357.5977353249733, 0.3, 0.3, -0.0063, 0.5, 24.998, -0.3142, -0.3142
5.1, (150.984,175.882), 3.4177, 100.0, 3.4177161783783783, 4.02, 4.02, 0.0444, 0.498, 24.901, 2.2224, 2.2224
1.2, (152.775,176.047), 359.7623, 100.0, 0.29769961171539205, 2.7, 2.7, 0.0173, 0.4997, 24.9851, 0.8638, 0.8638
352.02, (154.571,175.954), 350.1023, 100.0, 350.88227814502784, -5.82, -5.82, -0.0627, 0.4961, 24.8029, -3.1333, -3.1333
341.94, (156.52,175.516), 340.0223, 100.0, 340.98225765587057, -16.38, -16.38, -0.147, 0.4779, 23.8948, -7.351, -7.351
332.16, (158.359,174.737), 330.2422, 100.0, 330.54223867529595, -26.52, -26.52, -0.2312, 0.4433, 22.1672, -11.5592, -11.5592
322.14, (159.869,173.761), 320.2222, 100.0, 320.94222782609114, -36.06, -36.06, -0.3019, 0.3986, 19.9291, -15.0941, -15.0941
312, (161.333,172.403), 310.0822, 100.0, 310.8022106763092, -46.5, -46.5, -0.3673, 0.3392, 16.9604, -18.3669, -18.3669
309.66, (162.453,170.994), 307.7422, 100.0, 306.782193788979, -52.44, -52.44, -0.3902, 0.3126, 15.6311, -19.5108, -19.5108
316.14, (163.848,169.564), 314.2222, 100.0, 315.24217723405707, -41.82, -41.82, -0.34, 0.3666, 18.3314, -16.9988, -16.9988
309.72, (165.176,168.072), 307.8022, 100.0, 306.6021630039339, -52.14, -52.14, -0.3912, 0.3114, 15.5697, -19.5598, -19.5598
301.98, (166.378,166.476), 300.0621, 100.0, 300.4221481749559, -56.58, -56.58, -0.4224, 0.2675, 13.3736, -21.1222, -21.1222
292.44, (167.289,164.699), 290.5221, 100.0, 290.5221331257654, -66.48, -66.48, -0.4621, 0.1909, 9.5429, -23.107, -23.107
281.94, (167.821,162.981), 280.0221, 100.0, 281.102117284391, -75.9, -75.9, -0.4871, 0.1126, 5.6323, -24.3573, -24.3573
277.5, (168.098,161.002), 275.5821, 100.0, 275.1620981273223, -84, -84, -0.4962, 0.0616, 3.0814, -24.8094, -24.8094
286.98, (168.532,159.052), 285.0621, 100.0, 284.34208520260853, -74.52, -74.52, -0.48, 0.14, 6.9999, -24, -24
292.98, (169.189,157.378), 291.0621, 100.0, 292.1420675473339, -65.22, -65.22, -0.4566, 0.2038, 10.1923, -22.828, -22.828
282.6, (169.814,155.481), 280.682, 100.0, 281.40204492866104, -75.48, -75.48, -0.4865, 0.1152, 5.7597, -24.3275, -24.3275
283.68, (170.19,153.517), 281.762, 100.0, 281.34202336016676, -77.94, -77.94, -0.4867, 0.1147, 5.7343, -24.3335, -24.3335
293.82, (170.765,151.814), 291.902, 100.0, 291.1219995446251, -67.98, -67.98, -0.4601, 0.1957, 9.7843, -23.0058, -23.0058
297.9, (171.668,150.03), 295.982, 100.0, 294.90198487975255, -63.9, -63.9, -0.4462, 0.2256, 11.2797, -22.3107, -22.3107
305.1, (172.742,148.345), 303.182, 100.0, 303.1819699753177, -53.7, -53.7, -0.4091, 0.2875, 14.3751, -20.4537, -20.4537
295.26, (173.638,146.787), 293.342, 100.0, 293.70195769014117, -63.36, -63.36, -0.4508, 0.2162, 10.81, -22.542, -22.542
284.7, (174.323,144.911), 282.7819, 100.0, 283.1419427700619, -73.74, -73.74, -0.4828, 0.1299, 6.4958, -24.1414, -24.1414
284.46, (174.693,143.15), 282.5419, 100.0, 281.4619254423443, -77.7, -77.7, -0.4864, 0.1157, 5.7852, -24.3214, -24.3214
285.12, (175.285,141.24), 283.2019, 100.0, 283.92191229097386, -73.02, -73.02, -0.481, 0.1365, 6.8238, -24.0507, -24.0507
274.98, (175.639,139.275), 273.0619, 100.0, 273.4818991745156, -83.46, -83.46, -0.4978, 0.0471, 2.3527, -24.889, -24.889
267.06, (175.641,137.277), 265.1419, 100.0, 265.14188329498006, -93.66, -93.66, -0.4993, -0.0256, -1.2823, -24.9671, -24.9671
277.68, (175.708,135.48), 275.7619, 100.0, 274.3818661661172, -84.72, -84.72, -0.497, 0.0549, 2.7434, -24.849, -24.849
275.46, (176.018,133.505), 273.5418, 100.0, 274.32184665705756, -82.68, -82.68, -0.497, 0.0543, 2.7173, -24.8519, -24.8519
265.2, (176.021,131.508), 263.2818, 100.0, 263.2818257827281, -93.78, -93.78, -0.4982, -0.0418, -2.0919, -24.9123, -24.9123
271.74, (175.932,129.712), 269.8218, 100.0, 269.4618111992109, -89.76, -89.76, -0.4999, 0.012, 0.6021, -24.9927, -24.9927
280.92, (176.149,127.726), 279.0018, 100.0, 278.52179599542177, -80.22, -80.22, -0.4917, 0.0906, 4.5301, -24.5861, -24.5861
289.08, (176.61,125.987), 287.1618, 100.0, 286.5017832284019, -72.36, -72.36, -0.4744, 0.158, 7.8995, -23.7191, -23.7191
298.5, (177.411,124.157), 296.5818, 100.0, 296.2217714559769, -62.94, -62.94, -0.4409, 0.2358, 11.7907, -22.0449, -22.0449
306.78, (178.378,122.641), 304.8618, 100.0, 304.1417534585687, -55.08, -55.08, -0.4042, 0.2943, 14.7158, -20.21, -20.21
316.08, (179.699,121.141), 314.1617, 100.0, 313.7417350511288, -45.36, -45.36, -0.3495, 0.3576, 17.8801, -17.4729, -17.4729
318.66, (181.222,119.846), 316.7417, 100.0, 317.1017175568154, -40.26, -40.26, -0.3279, 0.3775, 18.8735, -16.3949, -16.3949
308.64, (182.591,118.392), 306.7217, 100.0, 307.0817051658934, -50.34, -50.34, -0.3886, 0.3147, 15.733, -19.4286, -19.4286
298.74, (183.589,116.896), 296.8217, 100.0, 297.9016901533743, -59.1, -59.1, -0.4338, 0.2486, 12.4319, -21.6898, -21.6898
292.02, (184.404,115.072), 290.1017, 100.0, 289.2616719404514, -69.66, -69.66, -0.4662, 0.1806, 9.0325, -23.3112, -23.3112
298.8, (185.317,113.295), 296.8816, 100.0, 296.8816488439905, -60.24, -60.24, -0.4382, 0.2409, 12.0438, -21.9077, -21.9077
289.02, (186.031,111.645), 287.1016, 100.0, 287.4016372159175, -69.9, -69.9, -0.4718, 0.1654, 8.2711, -23.5921, -23.5921
278.94, (186.5,109.703), 277.0216, 100.0, 277.3216177671252, -80.28, -80.28, -0.4935, 0.0803, 4.0143, -24.6756, -24.6756
280.92, (186.726,107.918), 279.0016, 100.0, 277.8615982548064, -81, -81, -0.4927, 0.0849, 4.2466, -24.6367, -24.6367
279.66, (187.164,105.967), 277.7416, 100.0, 278.1015817413975, -78.9, -78.9, -0.4924, 0.087, 4.3498, -24.6187, -24.6187
269.82, (187.318,104.176), 267.9016, 100.0, 269.0415663294697, -87.96, -87.96, -0.4999, 0.0084, 0.4189, -24.9965, -24.9965
272.52, (187.277,102.177), 270.6015, 100.0, 269.88154894809816, -89.28, -89.28, -0.4998, 0.0157, 0.7853, -24.9877, -24.9877
265.08, (187.272,100.179), 263.1615, 100.0, 263.1615309278193, -93.72, -93.72, -0.4982, -0.0429, -2.1441, -24.9079, -24.9079
256.02, (186.988,98.404), 254.1015, 100.0, 254.82151683114895, -102.24, -102.24, -0.4867, -0.1147, -5.7343, -24.3335, -24.3335
246.42, (186.357,96.508), 244.5015, 100.0, 245.10149730477323, -111.9, -111.9, -0.4603, -0.1952, -9.7602, -23.016, -23.016
248.4, (185.51,94.697), 246.4815, 100.0, 245.7614742857886, -113.1, -113.1, -0.4625, -0.1899, -9.4945, -23.1269, -23.1269
254.46, (184.935,92.992), 252.5415, 100.0, 251.5814598259485, -107.52, -107.52, -0.4794, -0.142, -7.1004, -23.9705, -23.9705
257.4, (184.522,91.037), 255.4814, 100.0, 256.141442297443, -101.22, -101.22, -0.4892, -0.1034, -5.1722, -24.4591, -24.4591
259.5, (184.082,89.292), 257.5814, 100.0, 256.4414304357747, -102.78, -102.78, -0.4897, -0.1009, -5.044, -24.4859, -24.4859
261.6, (183.828,87.309), 259.6814, 100.0, 260.40141459153904, -96.6, -96.6, -0.4955, -0.0668, -3.341, -24.7757, -24.7757
270.54, (183.672,85.318), 268.6214, 100.0, 268.2613956374364, -90.9, -90.9, -0.5, 0.0016, 0.0785, -24.9999, -24.9999
261.42, (183.565,83.523), 259.5014, 100.0, 260.58137569338663, -96.48, -96.48, -0.4957, -0.0653, -3.2632, -24.7861, -24.7861
259.32, (183.154,81.567), 257.4014, 100.0, 257.0413646846553, -102.12, -102.12, -0.4907, -0.0957, -4.7874, -24.5373, -24.5373
266.82, (182.931,79.58), 264.9013, 100.0, 264.5413429827815, -94.62, -94.62, -0.499, -0.0309, -1.5436, -24.9523, -24.9523
267.36, (182.921,77.581), 265.4413, 100.0, 265.4413262990382, -91.32, -91.32, -0.4995, -0.023, -1.1515, -24.9735, -24.9735
266.46, (182.738,75.791), 264.5413, 100.0, 263.82130875700915, -95.34, -95.34, -0.4986, -0.0371, -1.8571, -24.9309, -24.9309
276.66, (182.794,73.794), 274.7413, 100.0, 274.38129587059416, -84.78, -84.78, -0.497, 0.0549, 2.7434, -24.849, -24.849
286.5, (183.151,72.032), 284.5813, 100.0, 283.7412822138683, -75.48, -75.48, -0.4814, 0.135, 6.7482, -24.072, -24.072
295.38, (183.869,70.168), 293.4613, 100.0, 293.8212644873784, -65.4, -65.4, -0.4504, 0.2171, 10.8572, -22.5194, -22.5194
285.6, (184.504,68.486), 283.6812, 100.0, 284.4012471618753, -72.6, -72.6, -0.4799, 0.1405, 7.025, -23.9927, -23.9927
292.92, (185.127,66.588), 291.0012, 100.0, 291.0012307713452, -68.46, -68.46, -0.4605, 0.1947, 9.7361, -23.0262, -23.0262
285.72, (185.765,64.907), 283.8012, 100.0, 284.52121308621173, -72.48, -72.48, -0.4796, 0.1415, 7.0753, -23.9779, -23.9779
275.52, (186.14,62.945), 273.6012, 100.0, 274.38119610473336, -82.68, -82.68, -0.497, 0.0549, 2.7434, -24.849, -24.849
279.78, (186.337,60.957), 277.8612, 100.0, 277.5011789162548, -81.6, -81.6, -0.4933, 0.0818, 4.0918, -24.6629, -24.6629
276.12, (186.658,59.186), 274.2012, 100.0, 274.9811667255188, -82.02, -82.02, -0.4964, 0.0601, 3.0034, -24.8189, -24.8189
265.98, (186.705,57.189), 264.0611, 100.0, 264.66114948701994, -92.22, -92.22, -0.4991, -0.0298, -1.4914, -24.9555, -24.9555
269.94, (186.572,55.395), 268.0211, 100.0, 267.30113608023805, -92.1, -92.1, -0.5, -0.0068, -0.3403, -24.9977, -24.9977
275.04, (186.722,53.403), 273.1211, 100.0, 273.9011208456354, -83.1, -83.1, -0.4974, 0.0507, 2.5351, -24.8711, -24.8711
265.74, (186.724,51.405), 263.8211, 100.0, 263.8211015956693, -93.24, -93.24, -0.4986, -0.0371, -1.8571, -24.9309, -24.9309
267.78, (186.539,49.615), 265.8611, 100.0, 265.1410866161973, -94.26, -94.26, -0.4993, -0.0256, -1.2823, -24.9671, -24.9671
266.34, (186.513,47.616), 264.4211, 100.0, 264.42106746462395, -92.46, -92.46, -0.499, -0.0319, -1.5959, -24.949, -24.949
259.92, (186.255,46.038), 258.0011, 100.0, 257.2810549524767, -101.82, -101.82, -0.4911, -0.0937, -4.6845, -24.5572, -24.5572
258.78, (186.003,44.257), 256.861, 100.0, 257.8810395848776, -99.12, -99.12, -0.4921, -0.0885, -4.4271, -24.6049, -24.6049
259.92, (185.547,42.31), 258.001, 100.0, 257.28102332786744, -101.94, -101.94, -0.4911, -0.0937, -4.6845, -24.5572, -24.5572
269.76, (185.368,40.321), 267.841, 100.0, 267.5410037358875, -91.68, -91.68, -0.5, -0.0047, -0.2356, -24.9989, -24.9989
264.84, (185.35,38.522), 262.921, 100.0, 263.7009885824542, -93.06, -93.06, -0.4985, -0.0382, -1.9093, -24.927, -24.927
269.64, (185.184,36.53), 267.721, 100.0, 267.00097314564147, -91.92, -91.92, -0.4999, -0.0094, -0.4712, -24.9956, -24.9956
271.2, (185.282,34.533), 269.281, 100.0, 269.2809628826003, -87.72, -87.72, -0.4999, 0.0105, 0.5236, -24.9945, -24.9945
261.12, (185.152,32.74), 259.201, 100.0, 259.5609530214347, -97.32, -97.32, -0.4945, -0.0741, -3.7039, -24.7241, -24.7241
261.72, (184.768,30.778), 259.8009, 100.0, 259.440936150531, -99.72, -99.72, -0.4943, -0.0751, -3.7556, -24.7163, -24.7163
261.36, (184.586,28.988), 259.4409, 100.0, 260.10092105283326, -96.78, -96.78, -0.4952, -0.0694, -3.4707, -24.7579, -24.7579
264.72, (184.274,27.014), 262.8009, 100.0, 262.8009075415975, -96.3, -96.3, -0.4979, -0.046, -2.3006, -24.8939, -24.8939
266.16, (184.158,25.218), 264.2409, 100.0, 263.5208897801008, -95.7, -95.7, -0.4984, -0.0398, -1.9876, -24.9209, -24.9209
257.88, (183.903,23.237), 255.9609, 100.0, 255.9608741429967, -101.1, -101.1, -0.4889, -0.105, -5.249, -24.4428, -24.4428
265.68, (183.59,21.264), 263.7609, 100.0, 263.7608561538594, -95.46, -95.46, -0.4986, -0.0377, -1.8832, -24.929, -24.929
275.16, (183.599,19.466), 273.2408, 100.0, 272.58083730616, -86.58, -86.58, -0.4985, 0.0392, 1.9615, -24.9229, -24.9229
284.34, (183.926,17.495), 282.4208, 100.0, 282.0608198649076, -77.1, -77.1, -0.4852, 0.1208, 6.0396, -24.2595, -24.2595
293.22, (184.493,15.788), 291.3008, 100.0, 290.22080490642435, -69.06, -69.06, -0.4631, 0.1884, 9.4218, -23.1566, -23.1566
291.54, (185.328,13.971), 289.6208, 100.0, 290.04079247371754, -67.02, -67.02, -0.4637, 0.187, 9.349, -23.1861, -23.1861
281.28, (185.847,12.25), 279.3608, 100.0, 280.5607792495048, -76.5, -76.5, -0.4882, 0.108, 5.4025, -24.4093, -24.4093
287.94, (186.289,10.301), 286.0208, 100.0, 285.00076703564224, -74.28, -74.28, -0.4784, 0.1455, 7.2759, -23.9178, -23.9178
291.18, (186.928,8.406), 289.2608, 100.0, 288.48075297393865, -70.56, -70.56, -0.4686, 0.1743, 8.7143, -23.432, -23.432
301.2, (187.813,6.616), 299.2807, 100.0, 298.92073430376837, -60.24, -60.24, -0.4293, 0.2563, 12.8161, -21.4651, -21.4651
305.88, (188.858,5.152), 303.9607, 100.0, 304.7407173629638, -52.14, -52.14, -0.4011, 0.2985, 14.9266, -20.0548, -20.0548
300.66, (189.908,3.452), 298.7407, 100.0, 298.3807009046767, -60.84, -60.84, -0.4317, 0.2523, 12.6132, -21.5849, -21.5849
308.64, (191.072,1.828), 306.7207, 100.0, 306.7206842169586, -50.58, -50.58, -0.3905, 0.3122, 15.6106, -19.5271, -19.5271
298.74, (192.067,0.331), 296.8207, 100.0, 297.54067076362907, -59.64, -59.64, -0.4353, 0.2459, 12.2954, -21.7675, -21.7675
288.18, (192.867,-1.499), 286.2607, 100.0, 286.9806537146474, -70.08, -70.08, -0.473, 0.162, 8.0979, -23.6521, -23.6521
282, (193.341,-3.441), 280.0806, 100.0, 279.72063478663785, -79.38, -79.38, -0.4897, 0.1009, 5.044, -24.4859, -24.4859
291.12, (193.86,-5.162), 289.2006, 100.0, 288.1206208598547, -69.96, -69.96, -0.4697, 0.1713, 8.5669, -23.4863, -23.4863
298.98, (194.73,-6.96), 297.0606, 100.0, 297.78060949590315, -60.3, -60.3, -0.4343, 0.2477, 12.3865, -21.7158, -21.7158
306.66, (195.786,-8.656), 304.7406, 100.0, 304.4405954810729, -54.42, -54.42, -0.4027, 0.2964, 14.8214, -20.1327, -20.1327
316.86, (196.981,-9.999), 314.9406, 100.0, 313.860576130264, -45.3, -45.3, -0.3487, 0.3583, 17.9167, -17.4354, -17.4354
326.52, (198.54,-11.248), 324.6006, 100.0, 323.88056312962635, -34.92, -34.92, -0.281, 0.4135, 20.677, -14.0521, -14.0521
319.32, (200.155,-12.424), 317.4005, 100.0, 317.40054549499865, -39.66, -39.66, -0.3259, 0.3792, 18.959, -16.2958, -16.2958
324.84, (201.541,-13.57), 322.9205, 100.0, 322.5605317959038, -36.6, -36.6, -0.2905, 0.407, 20.3478, -14.5247, -14.5247
319.98, (203.001,-14.621), 318.0605, 100.0, 318.48052104904576, -38.64, -38.64, -0.3187, 0.3853, 19.2628, -15.9356, -15.9356
329.64, (204.633,-15.771), 327.7205, 100.0, 327.7205045448313, -31.44, -31.44, -0.2527, 0.4314, 21.5717, -12.6358, -12.6358
320.16, (206.114,-16.791), 318.2405, 100.0, 319.26048807787464, -37.62, -37.62, -0.3134, 0.3896, 19.478, -15.6719, -15.6719
323.46, (207.635,-18.089), 321.5405, 100.0, 320.76047371835716, -38.4, -38.4, -0.3031, 0.3976, 19.8815, -15.1567, -15.1567
332.28, (209.335,-19.137), 330.3605, 100.0, 330.7204543985333, -28.08, -28.08, -0.2298, 0.4441, 22.2034, -11.4895, -11.4895
323.22, (210.849,-20.107), 321.3004, 100.0, 321.3604361262986, -36.06, -36.06, -0.299, 0.4008, 20.0392, -14.9476, -14.9476
317.28, (212.419,-21.342), 315.3604, 100.0, 315.720422912408, -41.34, -41.34, -0.3369, 0.3695, 18.4731, -16.8447, -16.8447
312.72, (213.849,-22.74), 310.8004, 100.0, 311.1604107991711, -45.84, -45.84, -0.3652, 0.3415, 17.0755, -18.26, -18.26
317.64, (215.083,-24.049), 315.7204, 100.0, 315.0603888171858, -43.92, -43.92, -0.3411, 0.3656, 18.2779, -17.0563, -17.0563
313.5, (216.56,-25.395), 311.5804, 100.0, 312.0003694628999, -45, -45, -0.3602, 0.3468, 17.3413, -18.0077, -18.0077
311.1, (217.842,-26.929), 309.1804, 100.0, 308.8803553865906, -50.4, -50.4, -0.3785, 0.3267, 16.3355, -18.9249, -18.9249
321.3, (219.137,-28.177), 319.3803, 100.0, 318.3603327972084, -40.86, -40.86, -0.3195, 0.3846, 19.2294, -15.9759, -15.9759
317.4, (220.703,-29.418), 315.4803, 100.0, 316.2603160322794, -40.74, -40.74, -0.3334, 0.3726, 18.6311, -16.6698, -16.6698
326.52, (222.269,-30.659), 324.6003, 100.0, 324.2403006867603, -34.62, -34.62, -0.2784, 0.4153, 20.7649, -13.9219, -13.9219
318.48, (223.864,-31.86), 316.5603, 100.0, 316.5602833666463, -40.38, -40.38, -0.3314, 0.3744, 18.7181, -16.572, -16.572
321.3, (225.189,-33.078), 319.3803, 100.0, 318.66026509622554, -40.62, -40.62, -0.3175, 0.3863, 19.3128, -15.875, -15.875
328.38, (226.821,-34.233), 326.4602, 100.0, 326.1002433390044, -33, -33, -0.2648, 0.4241, 21.2058, -13.2406, -13.2406
338.88, (228.611,-35.117), 336.9602, 100.0, 336.6002247037399, -22.62, -22.62, -0.1831, 0.4653, 23.2636, -9.1544, -9.1544
344.64, (230.305,-35.723), 342.7202, 100.0, 342.06020443667313, -17.04, -17.04, -0.138, 0.4806, 24.0291, -6.8993, -6.8993
340.68, (232.233,-36.25), 338.7602, 100.0, 339.180187762447, -17.82, -17.82, -0.162, 0.473, 23.6521, -8.0979, -8.0979
330.9, (234.052,-37.076), 328.9802, 100.0, 328.98017240266074, -28.02, -28.02, -0.2432, 0.4369, 21.8443, -12.1584, -12.1584
336.78, (235.642,-37.916), 334.8602, 100.0, 334.08016056926857, -24.78, -24.78, -0.2034, 0.4568, 22.8386, -10.1684, -10.1684
345.96, (237.532,-38.563), 344.0401, 100.0, 343.6801433731149, -15.42, -15.42, -0.1243, 0.4843, 24.2146, -6.2172, -6.2172
345, (239.281,-38.985), 343.0801, 100.0, 342.36012855040167, -16.02, -16.02, -0.1355, 0.4813, 24.0649, -6.7734, -6.7734
352.44, (241.248,-39.335), 350.5201, 100.0, 350.9401091023531, -6.36, -6.36, -0.0621, 0.4961, 24.8061, -3.1074, -3.1074
353.04, (243.02,-39.649), 351.1201, 100.0, 350.1000907271981, -8.76, -8.76, -0.0694, 0.4952, 24.7579, -3.4707, -3.4707
2.88, (245.016,-39.723), 0.9601, 100.0, 0.5400704031787159, 1.68, 1.68, 0.0215, 0.4995, 24.977, 1.073, 1.073
13.14, (246.797,-39.475), 11.2201, 100.0, 10.440056094606106, 11.16, 11.16, 0.107, 0.4884, 24.4205, 5.3513, 5.3513
23.7, (248.695,-38.856), 21.78, 100.0, 20.94003787760474, 21.78, 21.78, 0.1942, 0.4607, 23.0364, 9.712, 9.712
25.56, (250.48,-37.955), 23.64, 100.0, 24.000022462815828, 27.42, 27.42, 0.2186, 0.4497, 22.4851, 10.9279, 10.9279
15.36, (252.354,-37.264), 13.44, 100.0, 13.440002364085695, 16.5, 16.5, 0.1324, 0.4821, 24.107, 6.6221, 6.6221
24.78, (254.229,-36.576), 22.86, 100.0, 22.859988240457156, 23.7, 23.7, 0.2096, 0.454, 22.6981, 10.4784, 10.4784
21.6, (255.904,-35.919), 19.68, 100.0, 19.019971166280875, 19.86, 19.86, 0.1787, 0.467, 23.3489, 8.9348, 8.9348
31.68, (257.69,-35.026), 29.76, 100.0, 29.399951843224134, 30.18, 30.18, 0.2599, 0.4271, 21.3569, 12.9954, 12.9954
41.58, (259.294,-33.835), 39.6599, 100.0, 39.29993557752626, 40.44, 40.44, 0.3295, 0.3761, 18.8046, 16.4738, 16.4738
51.48, (260.659,-32.377), 49.5599, 100.0, 49.559915551391995, 50.34, 50.34, 0.3912, 0.3114, 15.5697, 19.5598, 19.5598
46.44, (261.792,-30.981), 44.5199, 100.0, 45.23989923838452, 48.3, 48.3, 0.3666, 0.34, 16.9988, 18.3314, 18.3314
37.2, (263.275,-29.641), 35.2799, 100.0, 35.699881291776265, 38.7, 38.7, 0.3052, 0.396, 19.8019, 15.2605, 15.2605
27.72, (264.959,-28.567), 25.7999, 100.0, 26.15986750821627, 29.1, 29.1, 0.2354, 0.4411, 22.0573, 11.7676, 11.7676
18, (266.803,-27.798), 16.0799, 100.0, 16.07985350882546, 19.2, 19.2, 0.1545, 0.4755, 23.7764, 7.7254, 7.7254
8.1, (268.555,-27.395), 6.1798, 100.0, 6.959840678989261, 10.02, 10.02, 0.0772, 0.494, 24.7003, 3.8591, 3.8591
16.8, (270.511,-26.988), 14.8798, 100.0, 14.459825628836713, 15.24, 15.24, 0.141, 0.4797, 23.9853, 7.0502, 7.0502
25.86, (272.19,-26.346), 23.9398, 100.0, 23.279808787733682, 24.06, 24.06, 0.2129, 0.4524, 22.6207, 10.6445, 10.6445
19.08, (274.018,-25.539), 17.1598, 100.0, 17.51978803786076, 20.52, 20.52, 0.1664, 0.4715, 23.5748, 8.3205, 8.3205
15.54, (275.948,-25.018), 13.6198, 100.0, 13.619775145543983, 14.4, 14.4, 0.134, 0.4817, 24.0861, 6.6978, 6.6978
25.74, (277.63,-24.383), 23.8198, 100.0, 23.099755370016066, 23.94, 23.94, 0.2115, 0.4531, 22.654, 10.5734, 10.5734
29.28, (279.365,-23.391), 27.3597, 100.0, 28.49973644123134, 31.14, 31.14, 0.2532, 0.4312, 21.5584, 12.6584, 12.6584
19.14, (281.182,-22.561), 17.2197, 100.0, 17.879722034413778, 20.94, 20.94, 0.1694, 0.4704, 23.522, 8.4684, 8.4684
27.84, (283.023,-21.786), 25.9197, 100.0, 25.559702485606838, 26.4, 26.4, 0.2307, 0.4436, 22.1793, 11.536, 11.536
34.32, (284.587,-20.897), 32.3997, 100.0, 31.25969007989364, 31.98, 31.98, 0.2736, 0.4185, 20.9239, 13.6818, 13.6818
33.6, (286.238,-19.77), 31.6797, 100.0, 30.959673153570865, 31.8, 31.8, 0.2714, 0.4199, 20.9952, 13.572, 13.572
43.86, (287.798,-18.523), 41.9397, 100.0, 41.57965112179653, 42.3, 42.3, 0.3442, 0.3627, 18.1344, 17.2089, 17.2089
34.56, (289.184,-17.377), 32.6396, 100.0, 33.29963925057091, 36.3, 36.3, 0.2884, 0.4085, 20.4236, 14.4179, 14.4179
25.2, (290.905,-16.363), 23.2796, 100.0, 24.119625846549653, 26.82, 26.82, 0.2195, 0.4492, 22.4622, 10.975, 10.975
33.6, (292.66,-15.409), 31.6796, 100.0, 31.259606636893732, 32.04, 32.04, 0.2736, 0.4185, 20.9239, 13.6818, 13.6818
42.84, (294.229,-14.173), 40.9196, 100.0, 40.91958984636305, 41.7, 41.7, 0.34, 0.3666, 18.3314, 16.9988, 16.9988
52.08, (295.448,-12.851), 50.1596, 100.0, 49.43957358355778, 50.28, 50.28, 0.3905, 0.3122, 15.6106, 19.5271, 19.5271
57.96, (296.605,-11.221), 56.0396, 100.0, 55.67955636461235, 56.4, 56.4, 0.4222, 0.2679, 13.3957, 21.1082, 21.1082
59.22, (297.571,-9.47), 57.2995, 100.0, 57.2995403704647, 60.36, 60.36, 0.4296, 0.2559, 12.7936, 21.4785, 21.4785
65.58, (298.441,-7.896), 63.6595, 100.0, 63.23952629880464, 64.14, 64.14, 0.4537, 0.21, 10.5021, 22.6871, 22.6871
59.4, (299.319,-6.102), 57.4795, 100.0, 57.47950776949089, 60.48, 60.48, 0.4304, 0.2545, 12.726, 21.5186, 21.5186
69.48, (300.091,-4.478), 67.5595, 100.0, 66.8994918192188, 67.86, 67.86, 0.4662, 0.1806, 9.0325, 23.3112, 23.3112
68.7, (300.888,-2.644), 66.7795, 100.0, 65.99948127999149, 66.9, 66.9, 0.4633, 0.188, 9.3975, 23.1665, 23.1665
72.36, (301.428,-0.928), 70.4395, 100.0, 71.15946511101068, 74.16, 74.16, 0.4784, 0.1455, 7.2759, 23.9178, 23.9178
70.5, (302.142,0.939), 68.5794, 100.0, 68.21944491700513, 69.06, 69.06, 0.4703, 0.1699, 8.4931, 23.5131, 23.5131
72.18, (302.696,2.86), 70.2594, 100.0, 70.25942764670553, 73.32, 73.32, 0.476, 0.153, 7.6507, 23.8006, 23.8006
79.8, (303.165,4.595), 77.8794, 100.0, 77.15940887086732, 77.88, 77.88, 0.4909, 0.0947, 4.736, 24.5473, 24.5473
72, (303.614,6.542), 70.0794, 100.0, 70.4393895962348, 73.44, 73.44, 0.4765, 0.1515, 7.5759, 23.8245, 23.8245
62.22, (304.308,8.201), 60.2994, 100.0, 61.43937409127739, 64.14, 64.14, 0.4469, 0.2242, 11.2096, 22.346, 22.346
66.12, (305.244,9.967), 64.1994, 100.0, 63.8393582443838, 64.56, 64.56, 0.4559, 0.2053, 10.264, 22.7958, 22.7958
62.64, (306.041,11.8), 60.7193, 100.0, 60.719341349969575, 63.78, 63.78, 0.4441, 0.2298, 11.4895, 22.2034, 22.2034
63.36, (306.928,13.366), 61.4393, 100.0, 61.079328401502245, 61.8, 61.8, 0.4455, 0.227, 11.3498, 22.2752, 22.2752
72.6, (307.671,15.22), 70.6793, 100.0, 70.31931235084163, 71.1, 71.1, 0.4762, 0.1525, 7.6258, 23.8086, 23.8086
81.9, (308.069,16.974), 79.9793, 100.0, 78.83929644362672, 79.68, 79.68, 0.4935, 0.0803, 4.0143, 24.6756, 24.6756
85.02, (308.226,18.967), 83.0993, 100.0, 83.45928040157041, 86.46, 86.46, 0.4984, 0.0403, 2.0137, 24.9188, 24.9188
79.2, (308.564,20.937), 77.2793, 100.0, 77.27926185413146, 78.06, 78.06, 0.4911, 0.0937, 4.6845, 24.5572, 24.5572
88.5, (308.74,22.726), 86.5792, 100.0, 85.85924666690612, 87.42, 87.42, 0.4996, 0.0194, 0.9684, 24.9812, 24.9812
97.62, (308.62,24.72), 95.6992, 100.0, 95.39923034549199, 97.26, 97.26, 0.4959, -0.0637, -3.1853, 24.7963, 24.7963
107.1, (308.229,26.475), 105.1792, 100.0, 104.81920726129552, 105.66, 105.66, 0.4788, -0.144, -7.2007, 23.9405, 23.9405
116.4, (307.499,28.334), 114.4792, 100.0, 114.11919216663756, 115.2, 115.2, 0.4492, -0.2195, -10.975, 22.4622, 22.4622
125.64, (306.588,29.884), 123.7192, 100.0, 122.45917693419969, 123.66, 123.66, 0.4127, -0.2823, -14.117, 20.6328, 20.6328
134.52, (305.322,31.43), 132.5992, 100.0, 131.81916571756403, 132.66, 132.66, 0.3612, -0.3457, -17.2847, 18.0621, 18.0621
130.8, (303.952,32.884), 128.8792, 100.0, 128.57915234120162, 129.84, 129.84, 0.3802, -0.3247, -16.2362, 19.0101, 19.0101
141.06, (302.663,34.139), 139.1391, 100.0, 138.1191382907564, 138.84, 138.84, 0.3211, -0.3832, -19.1623, 16.0563, 16.0563
136.62, (301.117,35.405), 134.6991, 100.0, 134.6991251336536, 137.64, 137.64, 0.3434, -0.3634, -18.1704, 17.1708, 17.1708
130.68, (299.872,36.705), 128.7591, 100.0, 129.11911099912487, 132.12, 132.12, 0.3771, -0.3283, -16.4146, 18.8563, 18.8563
121.26, (298.708,38.328), 119.3391, 100.0, 119.3390979414028, 122.4, 122.4, 0.4274, -0.2595, -12.9731, 21.3705, 21.3705
110.82, (297.919,39.943), 108.8991, 100.0, 109.73908132977628, 113.04, 113.04, 0.4647, -0.1845, -9.2275, 23.2348, 23.2348
109.62, (297.312,41.848), 107.6991, 100.0, 107.03906080788755, 107.82, 107.82, 0.4729, -0.1625, -8.1227, 23.6436, 23.6436
116.88, (296.483,43.666), 114.959, 100.0, 115.25904016250472, 118.2, 118.2, 0.4448, -0.2284, -11.4197, 22.2394, 22.2394
107.28, (295.81,45.333), 105.359, 100.0, 106.07902156806728, 108.72, 108.72, 0.4755, -0.1545, -7.7254, 23.7764, 23.7764
110.64, (295.231,47.247), 108.719, 100.0, 108.35900367627622, 109.44, 109.44, 0.469, -0.1733, -8.6652, 23.4502, 23.4502
107.34, (294.573,48.921), 105.419, 100.0, 106.43898322234692, 109.44, 109.44, 0.4745, -0.1575, -7.8747, 23.7274, 23.7274
97.14, (294.135,50.87), 95.219, 100.0, 95.93896773376147, 98.94, 98.94, 0.4953, -0.0684, -3.4188, 24.7651, 24.7651
87.48, (294.064,52.866), 85.559, 100.0, 85.55895134428958, 88.5, 88.5, 0.4995, 0.022, 1.0992, 24.9758, 24.9758
96.06, (294.028,54.863), 94.1389, 100.0, 93.77893657935161, 94.62, 94.62, 0.4975, -0.0497, -2.483, 24.8764, 24.8764
105.96, (293.687,56.628), 104.0389, 100.0, 103.37892170508303, 104.22, 104.22, 0.4823, -0.1319, -6.5968, 24.1139, 24.1139
97.86, (293.246,58.576), 95.9389, 100.0, 96.23890763446907, 99.18, 99.18, 0.4949, -0.071, -3.5484, 24.7469, 24.7469
87.54, (293.157,60.372), 85.6189, 100.0, 86.69889176353574, 89.7, 89.7, 0.4999, 0.012, 0.6021, 24.9927, 24.9927
95.34, (293.153,62.37), 93.4189, 100.0, 92.63887510961992, 93.42, 93.42, 0.4984, -0.0398, -1.9876, 24.9209, 24.9209
104.94, (292.794,64.335), 103.0189, 100.0, 103.0188621659138, 103.86, 103.86, 0.4831, -0.1289, -6.4452, 24.1549, 24.1549
115.02, (292.177,66.023), 113.0988, 100.0, 112.31884512483339, 113.16, 113.16, 0.4559, -0.2053, -10.264, 22.7958, 22.7958
125.22, (291.175,67.751), 123.2988, 100.0, 122.99882480852843, 123.84, 123.84, 0.41, -0.2862, -14.3108, 20.4988, 20.4988
118.56, (290.178,69.248), 116.6388, 100.0, 117.89880684405547, 120.9, 120.9, 0.4338, -0.2486, -12.4319, 21.6898, 21.6898
108.72, (289.371,71.075), 106.7988, 100.0, 107.21879009155971, 110.22, 110.22, 0.4724, -0.1639, -8.1969, 23.618, 23.618
114.06, (288.701,72.958), 112.1388, 100.0, 111.77877479743562, 112.62, 112.62, 0.4578, -0.201, -10.0487, 22.8916, 22.8916
119.82, (287.742,74.711), 117.8988, 100.0, 118.25875773296438, 121.32, 121.32, 0.4322, -0.2514, -12.568, 21.6113, 21.6113
113.7, (286.893,76.52), 111.7787, 100.0, 111.77873731846634, 112.68, 112.68, 0.4578, -0.201, -10.0487, 22.8916, 22.8916
122.22, (286.029,78.097), 120.2987, 100.0, 120.65872124977116, 121.92, 121.92, 0.4213, -0.2692, -13.4619, 21.066, 21.066
112.5, (285.119,79.875), 110.5787, 100.0, 110.57870721298401, 113.58, 113.58, 0.4619, -0.1913, -9.5671, 23.097, 23.097
102.42, (284.533,81.784), 100.4987, 100.0, 100.4986890170702, 103.5, 103.5, 0.4883, -0.1075, -5.3769, 24.4149, 24.4149
92.7, (284.298,83.567), 90.7787, 100.0, 91.55867291766275, 94.44, 94.44, 0.4991, -0.0304, -1.5175, 24.9539, 24.9539
96.12, (284.223,85.565), 94.1987, 100.0, 93.77865843664296, 94.68, 94.68, 0.4975, -0.0497, -2.483, 24.8764, 24.8764
105.36, (283.894,87.333), 103.4386, 100.0, 102.35864762644458, 103.14, 103.14, 0.4846, -0.1233, -6.1665, 24.2275, 24.2275
103.5, (283.312,89.246), 101.5786, 100.0, 102.35863030072458, 105.42, 105.42, 0.4846, -0.1233, -6.1665, 24.2275, 24.2275
93.54, (283.011,91.22), 91.6186, 100.0, 92.27861157775968, 95.28, 95.28, 0.4987, -0.0366, -1.831, 24.9329, 24.9329
83.28, (283.064,93.217), 81.3586, 100.0, 81.71859429570051, 84.84, 84.84, 0.4969, 0.0554, 2.7694, 24.8461, 24.8461
82.8, (283.387,95.19), 80.8786, 100.0, 80.87857399114026, 81.72, 81.72, 0.4961, 0.0627, 3.1333, 24.8029, 24.8029
92.16, (283.467,96.987), 90.2386, 100.0, 89.21856415301315, 90.12, 90.12, 0.4999, -0.0099, -0.4974, 24.9951, 24.9951
94.2, (283.278,98.977), 92.2785, 100.0, 92.63854727943034, 95.76, 95.76, 0.4984, -0.0398, -1.9876, 24.9209, 24.9209
93.96, (283.217,100.975), 92.0385, 100.0, 92.03853237062067, 92.94, 92.94, 0.4988, -0.0345, -1.7265, 24.9403, 24.9403
104.1, (282.931,102.75), 102.1785, 100.0, 101.69852126279919, 102.48, 102.48, 0.4859, -0.1177, -5.887, 24.297, 24.297
114.3, (282.272,104.636), 112.3785, 100.0, 112.01850883408474, 112.74, 112.74, 0.457, -0.2029, -10.1445, 22.8493, 22.8493
114.96, (281.358,106.414), 113.0385, 100.0, 113.39849868431514, 116.28, 116.28, 0.452, -0.2138, -10.6918, 22.5983, 22.5983
105.48, (280.684,108.294), 103.5585, 100.0, 103.55848354134288, 106.32, 106.32, 0.4819, -0.1335, -6.6725, 24.0931, 24.0931
95.64, (280.364,110.064), 93.7185, 100.0, 94.43846653111186, 97.2, 97.2, 0.4969, -0.0554, -2.7694, 24.8461, 24.8461
85.32, (280.348,112.061), 83.3985, 100.0, 83.87845270648803, 86.58, 86.58, 0.4987, 0.0366, 1.831, 24.9329, 24.9329
81.12, (280.657,114.036), 79.1984, 100.0, 79.1984374996039, 80.04, 80.04, 0.494, 0.0772, 3.8591, 24.7003, 24.7003
91.26, (280.77,115.83), 89.3384, 100.0, 88.67842546822595, 89.58, 89.58, 0.5, -0.0052, -0.2618, 24.9986, 24.9986
95.76, (280.578,117.82), 93.8384, 100.0, 93.8384124899863, 96.9, 96.9, 0.4975, -0.0502, -2.509, 24.8738, 24.8738
85.44, (280.562,119.618), 83.5184, 100.0, 84.53839963669328, 87.54, 87.54, 0.499, 0.0309, 1.5436, 24.9523, 24.9523
75.3, (280.889,121.588), 73.3784, 100.0, 73.79838480107892, 76.98, 76.98, 0.4846, 0.1233, 6.1665, 24.2275, 24.2275
68.88, (281.477,123.287), 66.9584, 100.0, 66.23837283362715, 67.5, 67.5, 0.4641, 0.186, 9.3004, 23.2057, 23.2057
79.26, (282.034,125.205), 77.3384, 100.0, 76.61835561662167, 77.64, 77.64, 0.49, 0.0993, 4.9671, 24.5016, 24.5016
86.64, (282.238,127.193), 84.7183, 100.0, 84.71833560893603, 87.72, 87.72, 0.4991, 0.0293, 1.4652, 24.957, 24.957
76.5, (282.502,128.972), 74.5783, 100.0, 75.6583206948003, 78.42, 78.42, 0.4883, 0.1075, 5.3769, 24.4149, 24.4149
71.64, (283.108,130.876), 69.7183, 100.0, 69.71830113252489, 70.44, 70.44, 0.4745, 0.1575, 7.8747, 23.7274, 23.7274
77.76, (283.535,132.623), 75.8383, 100.0, 75.83828608541418, 78.84, 78.84, 0.4886, 0.106, 5.3002, 24.4317, 24.4317
87.84, (283.789,134.604), 85.9183, 100.0, 85.55826640845305, 86.52, 86.52, 0.4995, 0.022, 1.0992, 24.9758, 24.9758
96.66, (283.678,136.599), 94.7382, 100.0, 94.73824807540426, 96.9, 96.9, 0.4966, -0.058, -2.8994, 24.8313, 24.8313
87.66, (283.631,138.396), 85.7382, 100.0, 85.31823304880193, 88.02, 88.02, 0.4994, 0.0241, 1.2038, 24.971, 24.971
97.44, (283.566,140.193), 95.5182, 100.0, 94.37822204519442, 95.22, 95.22, 0.497, -0.0549, -2.7434, 24.849, 24.849
89.16, (283.423,142.185), 87.2382, 100.0, 87.53820369574181, 90.48, 90.48, 0.5, 0.0047, 0.2356, 24.9989, 24.9989
79.2, (283.594,143.975), 77.2782, 100.0, 78.35818716847912, 81.42, 81.42, 0.4928, 0.0844, 4.2208, 24.6411, 24.6411
69.24, (284.128,145.9), 67.3182, 100.0, 67.97816780170179, 71.1, 71.1, 0.4695, 0.1718, 8.5915, 23.4774, 23.4774
59.1, (285.001,147.696), 57.1782, 100.0, 57.178151182391616, 60.3, 60.3, 0.429, 0.2568, 12.8385, 21.4516, 21.4516
68.7, (285.879,149.489), 66.7781, 100.0, 66.77813578183529, 67.5, 67.5, 0.4658, 0.1816, 9.0813, 23.2923, 23.2923
73.38, (286.51,151.174), 71.4581, 100.0, 71.03811843851344, 71.94, 71.94, 0.4781, 0.1465, 7.326, 23.9025, 23.9025
83.34, (286.868,152.936), 81.4181, 100.0, 80.99810365423693, 81.6, 81.6, 0.4962, 0.0616, 3.0814, 24.8094, 24.8094
73.8, (287.249,154.897), 71.8781, 100.0, 72.29809124141447, 75.42, 75.42, 0.4812, 0.136, 6.7986, 24.0578, 24.0578
64.02, (287.968,156.76), 62.0981, 100.0, 62.45807559776815, 65.52, 65.52, 0.4508, 0.2162, 10.81, 22.542, 22.542
53.88, (289.013,158.462), 51.9581, 100.0, 51.95805770273659, 54.66, 54.66, 0.4039, 0.2947, 14.737, 20.1946, 20.1946
43.74, (290.204,159.809), 41.818, 100.0, 42.11804158906655, 45.12, 45.12, 0.3476, 0.3594, 17.9714, 17.379, 17.379
34.02, (291.765,161.055), 32.098, 100.0, 32.0980264966593, 35.1, 35.1, 0.2797, 0.4144, 20.7211, 13.9871, 13.9871
39, (293.246,162.075), 37.078, 100.0, 36.41801135827361, 37.5, 37.5, 0.3102, 0.3922, 19.6086, 15.5082, 15.5082
49.08, (294.677,163.469), 47.158, 100.0, 47.15799418652353, 47.88, 47.88, 0.3778, 0.3275, 16.3751, 18.8906, 18.8906
58.86, (295.727,164.928), 56.938, 100.0, 56.637976922365176, 57.42, 57.42, 0.4266, 0.2608, 13.0401, 21.3297, 21.3297
55.08, (296.754,166.643), 53.158, 100.0, 53.517967392686565, 56.46, 56.46, 0.4118, 0.2836, 14.1817, 20.5883, 20.5883
44.64, (297.909,168.021), 42.718, 100.0, 43.79795735803901, 46.74, 46.74, 0.358, 0.3491, 17.4541, 17.8984, 17.8984
54.66, (299.204,169.541), 52.7379, 100.0, 52.377934910371685, 53.22, 53.22, 0.406, 0.2918, 14.5885, 20.3021, 20.3021
57.54, (300.271,170.99), 55.6179, 100.0, 54.53792212921439, 55.38, 55.38, 0.4168, 0.2763, 13.813, 20.8375, 20.8375
64.2, (301.203,172.757), 62.2779, 100.0, 62.9979098827948, 66, 66, 0.4529, 0.2119, 10.5971, 22.6429, 22.6429
55.02, (302.227,174.472), 53.0979, 100.0, 53.097900434279246, 55.74, 55.74, 0.4097, 0.2866, 14.3323, 20.4838, 20.4838
44.76, (303.392,175.841), 42.8379, 100.0, 43.61788717926524, 46.56, 46.56, 0.3569, 0.3502, 17.5103, 17.8435, 17.8435
52.56, (304.741,177.315), 50.6379, 100.0, 50.21786801398338, 51.12, 51.12, 0.3948, 0.3069, 15.3434, 19.7378, 19.7378
44.94, (306.032,178.839), 43.0178, 100.0, 43.37784796158335, 46.32, 46.32, 0.3554, 0.3517, 17.5849, 17.77, 17.77
35.28, (307.411,179.993), 33.3578, 100.0, 33.77783789507729, 36.84, 36.84, 0.2918, 0.406, 20.3021, 14.5885, 14.5885
39.42, (308.969,181.244), 37.4978, 100.0, 37.85782006612559, 40.62, 40.62, 0.3199, 0.3843, 19.2127, 15.996, 15.996
30.48, (310.447,182.268), 28.5578, 100.0, 29.3378046347813, 32.34, 32.34, 0.2595, 0.4274, 21.3705, 12.9731, 12.9731
21.24, (312.249,183.132), 19.3178, 100.0, 19.73778331837437, 22.32, 22.32, 0.1845, 0.4647, 23.2348, 9.2275, 9.2275
10.92, (314.17,183.679), 8.9978, 100.0, 9.297766657636577, 12.24, 12.24, 0.0973, 0.4904, 24.5222, 4.8644, 4.8644
1.02, (316.157,183.878), 359.4622, 100.0, 359.46223959877403, 2.1, 2.1, 0.0089, 0.4999, 24.996, 0.445, 0.445
351.36, (317.951,183.753), 349.6822, 100.0, 350.04222120603936, -7.14, -7.14, -0.072, 0.4948, 24.7394, -3.6003, -3.6003
1.56, (319.944,183.63), 359.8822, 100.0, 359.58220468268553, 0.24, 0.24, 0.011, 0.4999, 24.994, 0.5497, 0.5497
11.34, (321.73,183.834), 9.6622, 100.0, 8.942194198092242, 9.6, 9.6, 0.0921, 0.4914, 24.5718, 4.6074, 4.6074
21.24, (323.646,184.401), 19.5622, 100.0, 19.56217702808521, 20.1, 20.1, 0.1811, 0.466, 23.3018, 9.0569, 9.0569
31.62, (325.428,185.302), 29.9422, 100.0, 29.942161431981944, 30.54, 30.54, 0.2621, 0.4258, 21.2886, 13.1071, 13.1071
24.06, (327,186.174), 22.3821, 100.0, 23.10214587150437, 25.92, 25.92, 0.2096, 0.454, 22.6981, 10.4784, 10.4784
14.16, (328.889,186.825), 12.4821, 100.0, 12.90212834778609, 15.66, 15.66, 0.1259, 0.4839, 24.1949, 6.2933, 6.2933
4.14, (330.664,187.111), 2.4621, 100.0, 3.18210932175122, 5.88, 5.88, 0.0424, 0.4982, 24.9101, 2.118, 2.118
9.72, (332.655,187.284), 8.0421, 100.0, 7.382092960117284, 7.86, 7.86, 0.0787, 0.4938, 24.6881, 3.9367, 3.9367
19.62, (334.587,187.791), 17.9421, 100.0, 17.582071293645917, 18.12, 18.12, 0.1649, 0.472, 23.6008, 8.2464, 8.2464
25.86, (336.226,188.531), 24.182, 100.0, 24.96204888373198, 27.72, 27.72, 0.2242, 0.4469, 22.346, 11.2096, 11.2096
16.38, (338.092,189.242), 14.702, 100.0, 15.062030859158648, 17.46, 17.46, 0.144, 0.4788, 23.9405, 7.2007, 7.2007
22.68, (339.993,189.859), 21.002, 100.0, 20.582008893249053, 21.24, 21.24, 0.1894, 0.4627, 23.1369, 9.4703, 9.4703
16.38, (341.669,190.512), 14.702, 100.0, 15.72199563975217, 18.42, 18.42, 0.1495, 0.4771, 23.856, 7.476, 7.476
6.42, (343.624,190.92), 4.742, 100.0, 5.461978301076716, 8.22, 8.22, 0.0621, 0.4961, 24.8061, 3.1074, 3.1074
356.82, (345.621,190.97), 355.378, 100.0, 355.73802075217765, -2.04, -2.04, -0.0246, 0.4994, 24.9697, -1.23, -1.23
5.28, (347.419,190.975), 3.838, 100.0, 3.118009781345853, 3.42, 3.42, 0.0398, 0.4984, 24.9209, 1.9876, 1.9876
15.06, (349.385,191.325), 13.618, 100.0, 13.257991727368564, 13.62, 13.62, 0.1269, 0.4836, 24.1817, 6.3439, 6.3439
5.34, (351.347,191.698), 3.898, 100.0, 4.617977754096121, 7.08, 7.08, 0.0528, 0.4972, 24.8603, 2.6392, 2.6392
356.7, (353.345,191.737), 356.582, 100.0, 356.5820175935293, -2.04, -2.04, -0.0288, 0.4992, 24.9585, -1.4391, -1.4391
346.56, (355.122,191.462), 346.442, 100.0, 346.862002058876, -11.76, -11.76, -0.1126, 0.4871, 24.3573, -5.6323, -5.6323
336.24, (357.015,190.826), 336.122, 100.0, 336.4819845461092, -22.32, -22.32, -0.1986, 0.4589, 22.9439, -9.9287, -9.9287
332.7, (358.605,189.985), 332.582, 100.0, 331.56196991149966, -29.4, -29.4, -0.2372, 0.4402, 22.0078, -11.8599, -11.8599
342.72, (360.451,189.225), 342.602, 100.0, 342.2419510428353, -18.36, -18.36, -0.1515, 0.4765, 23.8245, -7.5759, -7.5759
352.68, (362.207,188.836), 352.5619, 100.0, 351.4819384291578, -9.42, -9.42, -0.073, 0.4946, 24.7318, -3.6521, -3.6521
2.88, (364.202,188.748), 2.7619, 100.0, 2.0419229037744056, 1.08, 1.08, 0.0188, 0.4996, 24.9822, 0.9423, 0.9423
4.02, (366.192,188.949), 3.9019, 100.0, 3.9019092728175946, 4.98, 4.98, 0.0351, 0.4988, 24.9385, 1.7526, 1.7526
354.96, (367.99,188.934), 355.4419, 100.0, 356.28190662892166, -3.18, -3.18, -0.0366, 0.4987, 24.9329, -1.831, -1.831
345.6, (369.959,188.596), 346.0819, 100.0, 346.3818885037453, -13.02, -13.02, -0.1218, 0.4849, 24.2468, -6.0904, -6.0904
336.6, (371.66,188.012), 337.0819, 100.0, 337.7418729352402, -21.6, -21.6, -0.1933, 0.4611, 23.0567, -9.6638, -9.6638
326.94, (373.421,187.068), 327.4219, 100.0, 328.0818529310533, -31.38, -31.38, -0.2679, 0.4222, 21.1082, -13.3957, -13.3957
316.74, (374.987,185.83), 317.2218, 100.0, 317.2218393089716, -42.18, -42.18, -0.3427, 0.3641, 18.2063, -17.1328, -17.1328
307.02, (376.183,184.487), 307.5018, 100.0, 308.28182595004137, -51.06, -51.06, -0.3951, 0.3065, 15.3227, -19.7539, -19.7539
315.06, (377.467,182.956), 315.5418, 100.0, 315.121808886684, -46.38, -46.38, -0.3558, 0.3513, 17.5662, -17.7884, -17.7884
307.14, (378.805,181.473), 307.6218, 100.0, 307.92179014466126, -51.42, -51.42, -0.397, 0.304, 15.1983, -19.8498, -19.8498
300.12, (379.875,179.786), 300.6018, 100.0, 300.6017715145092, -61.02, -61.02, -0.4325, 0.2509, 12.5453, -21.6244, -21.6244
310.5, (381.042,178.165), 310.9818, 100.0, 310.98175471710954, -50.58, -50.58, -0.3802, 0.3247, 16.2362, -19.0101, -19.0101
314.52, (382.309,176.887), 315.0017, 100.0, 315.78173926804163, -43.5, -43.5, -0.3517, 0.3554, 17.77, -17.5849, -17.5849
305.16, (383.587,175.352), 305.6417, 100.0, 305.9417288595404, -53.4, -53.4, -0.4073, 0.2901, 14.5034, -20.363, -20.363
295.26, (384.492,173.798), 295.7417, 100.0, 296.58171270649456, -62.88, -62.88, -0.449, 0.22, 10.9985, -22.4507, -22.4507
284.82, (385.186,171.925), 285.3017, 100.0, 286.0816996893156, -73.32, -73.32, -0.4816, 0.1345, 6.723, -24.0791, -24.0791
275.04, (385.54,169.96), 275.5217, 100.0, 276.24167979931366, -83.52, -83.52, -0.4975, 0.0502, 2.509, -24.8738, -24.8738
265.44, (385.549,167.962), 265.9217, 100.0, 265.92166176944147, -93.42, -93.42, -0.4984, -0.0398, -1.9876, -24.9209, -24.9209
255.66, (385.254,166.189), 256.1416, 100.0, 256.86164039063016, -102.6, -102.6, -0.4859, -0.1177, -5.887, -24.297, -24.297
258.96, (384.734,164.258), 259.4416, 100.0, 258.66162142526275, -102.9, -102.9, -0.4894, -0.1024, -5.1209, -24.4699, -24.4699
267.9, (384.497,162.274), 268.3816, 100.0, 268.02160717923664, -93.66, -93.66, -0.4995, -0.0215, -1.073, -24.977, -24.977
266.52, (384.488,160.275), 267.0016, 100.0, 267.3615942431549, -92.1, -92.1, -0.4993, -0.0272, -1.3607, -24.9629, -24.9629
272.94, (384.434,158.478), 273.4216, 100.0, 272.7615772503524, -88.8, -88.8, -0.4996, 0.0199, 0.9946, -24.9802, -24.9802
280.8, (384.655,156.492), 281.2816, 100.0, 280.9215579298183, -80.7, -80.7, -0.4917, 0.0906, 4.5301, -24.5861, -24.5861
291.06, (385.206,154.572), 291.5415, 100.0, 291.1815450664873, -70.44, -70.44, -0.4677, 0.1767, 8.8369, -23.3861, -23.3861
300.78, (385.984,152.951), 301.2615, 100.0, 300.0615336898149, -61.14, -61.14, -0.4348, 0.2468, 12.341, -21.7417, -21.7417
300.12, (387.066,151.269), 300.6015, 100.0, 300.96151833181375, -58.38, -58.38, -0.4309, 0.2536, 12.6809, -21.5452, -21.5452
289.86, (387.899,149.454), 290.3415, 100.0, 290.341498386944, -69, -69, -0.4703, 0.1699, 8.4931, -23.5131, -23.5131
280.08, (388.357,147.715), 280.5615, 100.0, 281.3414805282212, -78.06, -78.06, -0.491, 0.0942, 4.7102, -24.5523, -24.5523
278.7, (388.598,145.73), 279.1815, 100.0, 278.8214627747829, -83.1, -83.1, -0.4947, 0.0725, 3.6262, -24.7356, -24.7356
289.08, (389.073,143.791), 289.5614, 100.0, 288.8414456257193, -72.78, -72.78, -0.4745, 0.1575, 7.8747, -23.7274, -23.7274
288.18, (389.79,141.924), 288.6614, 100.0, 289.021430254411, -70.38, -70.38, -0.4741, 0.159, 7.9492, -23.7025, -23.7025
278.04, (390.235,139.977), 278.5214, 100.0, 278.8814120277124, -80.88, -80.88, -0.4946, 0.073, 3.6521, -24.7318, -24.7318
268.08, (390.331,138.182), 268.5614, 100.0, 269.2813980375246, -90.12, -90.12, -0.4999, -0.0105, -0.5236, -24.9945, -24.9945
272.64, (390.271,136.184), 273.1214, 100.0, 272.4013816651814, -89.1, -89.1, -0.4997, 0.0168, 0.8376, -24.986, -24.986
281.64, (390.515,134.201), 282.1214, 100.0, 281.76136390916196, -79.5, -79.5, -0.4903, 0.0978, 4.8901, -24.5171, -24.5171
291.12, (391.081,132.285), 291.6013, 100.0, 291.18134760253054, -70.14, -70.14, -0.4677, 0.1767, 8.8369, -23.3861, -23.3861
291.06, (391.871,130.448), 291.5413, 100.0, 291.5413283805047, -67.86, -67.86, -0.4666, 0.1797, 8.9836, -23.3301, -23.3301
283.56, (392.368,128.719), 284.0413, 100.0, 283.62131405591305, -77.1, -77.1, -0.4869, 0.1137, 5.6833, -24.3454, -24.3454
293.58, (393.004,126.826), 294.0613, 100.0, 293.70129655474494, -67.98, -67.98, -0.4595, 0.1971, 9.8566, -22.9749, -22.9749
303.72, (393.96,125.073), 304.2013, 100.0, 303.8412745258825, -57.78, -57.78, -0.4176, 0.2749, 13.7474, -20.8808, -20.8808
311.7, (395.214,123.517), 312.1813, 100.0, 312.181257568905, -47.64, -47.64, -0.3733, 0.3326, 16.6308, -18.666, -18.666
317.28, (396.434,122.196), 317.7612, 100.0, 316.9812463526824, -44.28, -44.28, -0.3442, 0.3627, 18.1344, -17.2089, -17.2089
311.58, (397.88,120.816), 312.0612, 100.0, 312.7212281339007, -46.62, -46.62, -0.3702, 0.3361, 16.8059, -18.5084, -18.5084
301.98, (399.075,119.216), 302.4612, 100.0, 302.4612126328942, -57, -57, -0.4241, 0.2648, 13.2406, -21.2058, -21.2058
303.18, (400.082,117.489), 303.6612, 100.0, 303.66120039011696, -57.54, -57.54, -0.4185, 0.2736, 13.6818, -20.9239, -20.9239
303, (401.132,116.027), 303.4812, 100.0, 303.8411821813319, -55.5, -55.5, -0.4176, 0.2749, 13.7474, -20.8808, -20.8808
292.74, (402.069,114.263), 293.2212, 100.0, 293.8811666120674, -65.52, -65.52, -0.4589, 0.1986, 9.9287, -22.9439, -22.9439
282.6, (402.681,112.362), 283.0811, 100.0, 283.7411489622088, -75.66, -75.66, -0.4867, 0.1147, 5.7343, -24.3335, -24.3335
287.34, (403.131,110.415), 287.8211, 100.0, 287.4611310650242, -74.1, -74.1, -0.4782, 0.146, 7.3009, -23.9102, -23.9102
282.18, (403.653,108.693), 282.6611, 100.0, 283.8011103982327, -75.48, -75.48, -0.4865, 0.1152, 5.7597, -24.3275, -24.3275
273.12, (403.939,106.716), 273.6011, 100.0, 274.381095963549, -85.02, -85.02, -0.4988, 0.034, 1.7004, -24.9421, -24.9421
276.06, (404.021,104.719), 276.5411, 100.0, 276.18108031416097, -85.44, -85.44, -0.4975, 0.0497, 2.483, -24.8764, -24.8764
271.86, (404.23,102.731), 272.3411, 100.0, 272.70106262858394, -86.64, -86.64, -0.4996, 0.0194, 0.9684, -24.9812, -24.9812
263.46, (404.17,100.933), 263.941, 100.0, 265.0810498964484, -94.56, -94.56, -0.4978, -0.0471, -2.3527, -24.889, -24.889
253.8, (403.787,98.973), 254.281, 100.0, 255.00103370535197, -104.46, -104.46, -0.4819, -0.1335, -6.6725, -24.0931, -24.0931
258.66, (403.256,97.046), 259.141, 100.0, 259.14102122054544, -102.42, -102.42, -0.4902, -0.0983, -4.9158, -24.5119, -24.5119
260.52, (402.926,95.277), 261.001, 100.0, 260.4010061116419, -101.22, -101.22, -0.4923, -0.0875, -4.3756, -24.6141, -24.6141
269.64, (402.761,93.286), 270.121, 100.0, 269.7609919500799, -91.86, -91.86, -0.5, -0.0063, -0.3142, -24.998, -24.998
278.88, (402.897,91.493), 279.361, 100.0, 278.16097349490576, -83.1, -83.1, -0.4955, 0.0668, 3.341, -24.7757, -24.7757
285.54, (403.363,89.55), 286.021, 100.0, 286.44095648198754, -72.84, -72.84, -0.4807, 0.1375, 6.8742, -24.0363, -24.0363
276.06, (403.72,87.585), 276.5409, 100.0, 276.54094393518295, -83.28, -83.28, -0.4972, 0.0528, 2.6392, -24.8603, -24.8603
284.82, (404.031,85.814), 285.3009, 100.0, 284.58092588265976, -76.92, -76.92, -0.4849, 0.1218, 6.0904, -24.2468, -24.2468
278.82, (404.427,83.856), 279.3009, 100.0, 278.9409084608509, -82.26, -82.26, -0.4946, 0.0736, 3.678, -24.728, -24.728
279.72, (404.798,82.095), 280.2009, 100.0, 280.9208947623488, -78.54, -78.54, -0.4917, 0.0906, 4.5301, -24.5861, -24.5861
274.26, (405.008,80.107), 274.7409, 100.0, 274.7408820057043, -84.24, -84.24, -0.4986, 0.0371, 1.8571, -24.9309, -24.9309
265.26, (404.975,78.109), 265.7409, 100.0, 265.74087275095565, -93.72, -93.72, -0.4983, -0.0413, -2.0659, -24.9145, -24.9145
255.96, (404.661,76.339), 256.4409, 100.0, 256.4408536489325, -103.26, -103.26, -0.4851, -0.1213, -6.065, -24.2532, -24.2532
266.22, (404.38,74.563), 266.7008, 100.0, 265.8608391226364, -95.7, -95.7, -0.4984, -0.0403, -2.0137, -24.9188, -24.9188
265.32, (404.15,72.577), 265.8008, 100.0, 265.4408224674649, -96.18, -96.18, -0.4981, -0.0439, -2.1963, -24.9033, -24.9033
274.32, (404.155,71.179), 274.8008, 100.0, 274.1408168336033, -87.54, -87.54, -0.499, 0.0319, 1.5959, -24.949, -24.949
276.6, (404.429,69.198), 277.0808, 100.0, 277.8008018163943, -81.6, -81.6, -0.4959, 0.0637, 3.1853, -24.7963, -24.7963
270.78, (404.498,67.201), 271.2608, 100.0, 271.26078081112723, -90.24, -90.24, -0.5, 0.0068, 0.3403, -24.9977, -24.9977
277.14, (404.679,65.412), 277.6208, 100.0, 278.3407631321973, -81.06, -81.06, -0.4953, 0.0684, 3.4188, -24.7651, -24.7651
283.2, (404.986,63.438), 283.6807, 100.0, 283.68074728801486, -77.82, -77.82, -0.4868, 0.1142, 5.7088, -24.3395, -24.3395
283.38, (405.482,61.708), 283.8607, 100.0, 284.16073117783867, -75.18, -75.18, -0.4858, 0.1182, 5.9125, -24.2908, -24.2908
282.54, (405.809,59.939), 283.0207, 100.0, 282.60071926911013, -79.32, -79.32, -0.4889, 0.105, 5.249, -24.4428, -24.4428
292.56, (406.422,58.038), 293.0407, 100.0, 293.0407033253137, -68.58, -68.58, -0.4617, 0.1918, 9.5913, -23.087, -23.087
289.86, (407.216,56.204), 290.3407, 100.0, 290.34068945082277, -69.36, -69.36, -0.4703, 0.1699, 8.4931, -23.5131, -23.5131
279.6, (407.665,54.463), 280.0807, 100.0, 280.8006739196492, -78.6, -78.6, -0.4919, 0.0896, 4.4786, -24.5956, -24.5956
282.12, (407.964,52.486), 282.6007, 100.0, 282.18065590936584, -79.02, -79.02, -0.4896, 0.1014, 5.0697, -24.4806, -24.4806
292.02, (408.494,50.768), 292.5006, 100.0, 291.72063760053834, -69.96, -69.96, -0.466, 0.1811, 9.0569, -23.3018, -23.3018
301.8, (409.317,49.17), 302.2806, 100.0, 301.86062060771906, -59.34, -59.34, -0.4269, 0.2604, 13.0178, -21.3433, -21.3433
312.18, (410.396,47.732), 312.6606, 100.0, 311.52060172170167, -49.98, -49.98, -0.3771, 0.3283, 16.4146, -18.8563, -18.8563
312.9, (411.81,46.319), 313.3806, 100.0, 314.1005832252045, -45.3, -45.3, -0.362, 0.3449, 17.2468, -18.0983, -18.0983
302.76, (413.028,44.735), 303.2406, 100.0, 303.2405656021247, -56.04, -56.04, -0.4205, 0.2706, 13.528, -21.0236, -21.0236
292.68, (413.87,43.147), 293.1606, 100.0, 294.3005513279643, -65.04, -65.04, -0.4574, 0.2019, 10.0966, -22.8705, -22.8705
290.76, (414.532,41.26), 291.2405, 100.0, 290.5205317935502, -71.16, -71.16, -0.4697, 0.1713, 8.5669, -23.4863, -23.4863
299.28, (415.398,39.46), 299.7605, 100.0, 299.7605134306562, -60.42, -60.42, -0.4361, 0.2445, 12.227, -21.806, -21.806
289.56, (416.131,37.819), 290.0405, 100.0, 290.4604999668427, -69, -69, -0.4699, 0.1708, 8.5423, -23.4953, -23.4953
279.18, (416.636,35.887), 279.6605, 100.0, 280.3804824031065, -78.96, -78.96, -0.4926, 0.086, 4.2982, -24.6277, -24.6277
285.12, (417.004,33.923), 285.6005, 100.0, 285.18046547717273, -76.32, -76.32, -0.4836, 0.1269, 6.3439, -24.1817, -24.1817
279.36, (417.443,32.179), 279.8404, 100.0, 280.6204438288819, -78.78, -78.78, -0.4922, 0.088, 4.4013, -24.6095, -24.6095
269.34, (417.608,30.188), 269.8204, 100.0, 270.54042575154887, -88.86, -88.86, -0.5, 0.0005, 0.0262, -25, -25
278.22, (417.729,28.194), 278.7004, 100.0, 278.7004053236202, -82.8, -82.8, -0.4949, 0.0715, 3.5744, -24.7432, -24.7432
286.2, (418.142,26.444), 286.6804, 100.0, 287.34038615941927, -73.44, -73.44, -0.4785, 0.145, 7.2509, -23.9254, -23.9254
276.72, (418.529,24.485), 277.2004, 100.0, 277.50036700091385, -82.62, -82.62, -0.4963, 0.0611, 3.0554, -24.8126, -24.8126
266.46, (418.579,22.488), 266.9403, 100.0, 267.3003470758728, -92.1, -92.1, -0.4992, -0.0277, -1.3868, -24.9615, -24.9615
270.6, (418.46,20.693), 271.0803, 100.0, 270.06032962885615, -91.2, -91.2, -0.5, -0.0037, -0.1833, -24.9993, -24.9993
272.64, (418.527,18.694), 273.1203, 100.0, 272.7603124944203, -88.8, -88.8, -0.4996, 0.0199, 0.9946, -24.9802, -24.9802
281.46, (418.759,16.911), 281.9403, 100.0, 281.1602981568007, -80.4, -80.4, -0.4913, 0.0927, 4.6331, -24.5669, -24.5669
288.36, (419.319,14.993), 288.8403, 100.0, 289.20027519858576, -70.14, -70.14, -0.4735, 0.1605, 8.0236, -23.6775, -23.6775
294.06, (419.99,13.111), 294.5403, 100.0, 294.54026133834617, -67.02, -67.02, -0.4566, 0.2038, 10.1923, -22.828, -22.828
304.02, (420.864,11.54), 304.5002, 100.0, 303.84024451662236, -57.72, -57.72, -0.4176, 0.2749, 13.7474, -20.8808, -20.8808
310.38, (422.051,9.931), 310.8602, 100.0, 310.0802307422706, -51.54, -51.54, -0.3853, 0.3187, 15.9356, -19.2628, -19.2628
309.78, (423.402,8.458), 310.2602, 100.0, 310.5602172528552, -48.78, -48.78, -0.3826, 0.3219, 16.0964, -19.1287, -19.1287
299.46, (424.525,6.806), 299.9402, 100.0, 299.94020213365684, -59.46, -59.46, -0.4353, 0.2459, 12.2954, -21.7675, -21.7675
289.44, (425.276,5.172), 289.9202, 100.0, 290.94018351947085, -68.46, -68.46, -0.4685, 0.1748, 8.7388, -23.4229, -23.4229
281.22, (425.789,3.242), 281.7002, 100.0, 280.9201689615912, -78.48, -78.48, -0.4917, 0.0906, 4.5301, -24.5861, -24.5861
290.1, (426.349,1.324), 290.5802, 100.0, 290.58015265209025, -70.02, -70.02, -0.4695, 0.1718, 8.5915, -23.4774, -23.4774
289.26, (426.873,-0.397), 289.7401, 100.0, 288.72013409543825, -72.84, -72.84, -0.4749, 0.1565, 7.825, -23.7438, -23.7438
299.58, (427.687,-2.221), 300.0601, 100.0, 299.4001164564615, -62.22, -62.22, -0.4376, 0.2418, 12.0897, -21.8824, -21.8824
290.1, (428.532,-4.03), 290.5801, 100.0, 290.9400978174606, -68.82, -68.82, -0.4685, 0.1748, 8.7388, -23.4229, -23.4229
280.62, (429.017,-5.762), 281.1001, 100.0, 281.820082927861, -77.52, -77.52, -0.4902, 0.0983, 4.9158, -24.5119, -24.5119
270.72, (429.216,-7.749), 271.2001, 100.0, 271.56006467232805, -87.84, -87.84, -0.4999, 0.0094, 0.4712, -24.9956, -24.9956
268.02, (429.122,-9.546), 268.5, 100.0, 267.84004865026566, -93.72, -93.72, -0.4995, -0.023, -1.1515, -24.9735, -24.9735
271.02, (429.186,-11.544), 271.5, 100.0, 272.2200336220877, -87.24, -87.24, -0.4998, 0.0152, 0.7591, -24.9885, -24.9885
261.18, (429.063,-13.337), 261.66, 100.0, 261.6600167846221, -97.5, -97.5, -0.4941, -0.0767, -3.8333, -24.7044, -24.7044
266.76, (428.806,-15.117), 267.24, 100.0, 266.22000369121304, -95.46, -95.46, -0.4986, -0.0371, -1.8571, -24.9309, -24.9309
274.56, (428.811,-17.116), 275.04, 100.0, 274.73998238186664, -86.76, -86.76, -0.4986, 0.0371, 1.8571, -24.9309, -24.9309
284.7, (429.154,-19.083), 285.18, 100.0, 284.8199648135167, -76.68, -76.68, -0.4844, 0.1238, 6.1919, -24.2211, -24.2211
294.84, (429.763,-20.775), 295.3199, 100.0, 294.6599455847975, -66.9, -66.9, -0.4561, 0.2048, 10.2401, -22.8066, -22.8066
293.04, (430.65,-22.567), 293.5199, 100.0, 293.8799236283706, -65.52, -65.52, -0.4589, 0.1986, 9.9287, -22.9439, -22.9439
286.68, (431.272,-24.466), 287.1599, 100.0, 287.1599077263536, -74.4, -74.4, -0.479, 0.1435, 7.1757, -23.9481, -23.9481
296.22, (431.939,-26.135), 296.6999, 100.0, 295.61988756264157, -64.98, -64.98, -0.4526, 0.2124, 10.6208, -22.6318, -22.6318
305.28, (432.969,-27.847), 305.7599, 100.0, 305.3398697102678, -55.14, -55.14, -0.4103, 0.2858, 14.2893, -20.5138, -20.5138
314.4, (434.134,-29.216), 314.8799, 100.0, 315.17985744581244, -46.08, -46.08, -0.3554, 0.3517, 17.5849, -17.77, -17.77
323.22, (435.626,-30.544), 323.6998, 100.0, 323.69984260596345, -37.86, -37.86, -0.2994, 0.4005, 20.0235, -14.9686, -14.9686
320.22, (437.012,-31.691), 320.6998, 100.0, 320.21982815539775, -41.7, -41.7, -0.3231, 0.3816, 19.078, -16.1564, -16.1564
325.62, (438.641,-32.848), 326.0998, 100.0, 326.0998120591261, -33.3, -33.3, -0.2823, 0.4127, 20.6328, -14.117, -14.117
327.48, (440.095,-33.908), 327.9598, 100.0, 327.2998002701474, -34.26, -34.26, -0.2736, 0.4185, 20.9239, -13.6818, -13.6818
327.96, (441.81,-34.935), 328.4398, 100.0, 327.719784986146, -32.7, -32.7, -0.2706, 0.4205, 21.0236, -13.528, -13.528
337.98, (443.408,-35.759), 338.4598, 100.0, 337.7397702279845, -23.82, -23.82, -0.1933, 0.4611, 23.0567, -9.6638, -9.6638
347.82, (445.313,-36.358), 348.2998, 100.0, 347.57975600048593, -13.92, -13.92, -0.1116, 0.4874, 24.369, -5.5813, -5.5813
357.72, (447.295,-36.606), 358.1997, 100.0, 358.19973970149346, -3.3, -3.3, -0.0199, 0.4996, 24.9802, -0.9946, -0.9946
7.86, (449.091,-36.523), 8.3397, 100.0, 7.19972616999426, 5.64, 5.64, 0.0585, 0.4966, 24.8282, 2.9254, 2.9254
17.76, (451.043,-36.098), 18.2397, 100.0, 17.519702489275517, 15.96, 15.96, 0.1465, 0.4781, 23.9025, 7.326, 7.326
9.3, (452.979,-35.606), 9.7797, 100.0, 10.19968739476918, 10.5, 10.5, 0.0844, 0.4928, 24.6411, 4.2208, 4.2208
359.7, (454.772,-35.468), 360.0603, 100.0, 1.019675266425996, 1.26, 1.26, 0.0047, 0.5, 24.9989, 0.2356, 0.2356
354.3, (456.77,-35.521), 356.1003, 100.0, 356.76031870128656, -4.08, -4.08, -0.0439, 0.4981, 24.9033, -2.1963, -2.1963
345.84, (458.74,-35.859), 347.6403, 100.0, 348.0602960452548, -12.6, -12.6, -0.1188, 0.4857, 24.2846, -5.9379, -5.9379
345.9, (460.656,-36.427), 347.7003, 100.0, 347.70028481756543, -15.18, -15.18, -0.1218, 0.4849, 24.2468, -6.0904, -6.0904
355.8, (462.432,-36.713), 357.6003, 100.0, 356.7602736374174, -6.06, -6.06, -0.0439, 0.4981, 24.9033, -2.1963, -2.1963
5.4, (464.429,-36.692), 7.2003, 100.0, 6.840260184072691, 3.96, 3.96, 0.0439, 0.4981, 24.9033, 2.1963, 2.1963
357.48, (466.425,-36.617), 359.2798, 100.0, 359.63975034116265, -1.32, -1.32, -0.0188, 0.4996, 24.9822, -0.9423, -0.9423
5.16, (468.423,-36.6), 6.9597, 100.0, 6.959733523124511, 4.02, 4.02, 0.045, 0.498, 24.8987, 2.2484, 2.2484
15, (470.191,-36.276), 16.7997, 100.0, 16.439714093144786, 13.5, 13.5, 0.1264, 0.4838, 24.1883, 6.3186, 6.3186
16.14, (472.091,-35.654), 17.9397, 100.0, 18.779701007938836, 18.06, 18.06, 0.146, 0.4782, 23.9102, 7.3009, 7.3009
6.24, (474.051,-35.266), 8.0397, 100.0, 8.399684787448102, 7.62, 7.62, 0.0575, 0.4967, 24.8343, 2.8734, 2.8734
2.46, (475.849,-35.201), 2.9397, 100.0, 1.7396708024702996, 0.3, 0.3, 0.011, 0.4999, 24.994, 0.5497, 0.5497
11.46, (477.831,-34.958), 11.9397, 100.0, 11.159651819500775, 10.32, 10.32, 0.0927, 0.4913, 24.5669, 4.6331, 4.6331
19.26, (479.747,-34.393), 19.7396, 100.0, 20.0396340784431, 20.34, 20.34, 0.1674, 0.4711, 23.5573, 8.3698, 8.3698
24.66, (481.435,-33.772), 25.1396, 100.0, 24.779620669322057, 22.92, 22.92, 0.2058, 0.4557, 22.7851, 10.2879, 10.2879
21.6, (483.257,-32.951), 22.0796, 100.0, 21.71960524706288, 21.24, 21.24, 0.1811, 0.466, 23.3018, 9.0569, 9.0569
31.44, (485.037,-32.045), 31.9196, 100.0, 31.91958616287752, 30.78, 30.78, 0.2608, 0.4266, 21.3297, 13.0401, 13.0401
21.48, (486.645,-31.24), 21.9596, 100.0, 22.979568392183218, 23.7, 23.7, 0.1913, 0.4619, 23.097, 9.5671, 9.5671
28.5, (488.478,-30.445), 28.9796, 100.0, 28.37955159193301, 26.76, 26.76, 0.234, 0.4419, 22.0941, 11.6982, 11.6982
37.74, (490.156,-29.361), 38.2195, 100.0, 38.21953799623294, 36.3, 36.3, 0.306, 0.3954, 19.7699, 15.302, 15.302
32.58, (491.595,-28.282), 33.0595, 100.0, 33.359526580587655, 33.9, 33.9, 0.2714, 0.4199, 20.9952, 13.572, 13.572
34.5, (492.966,-27.457), 34.9795, 100.0, 34.67951936630809, 32.28, 32.28, 0.281, 0.4135, 20.677, 14.0521, 14.0521
48.78, (495.059,-25.608), 49.2595, 100.0, 48.479500499537615, 47.04, 47.04, 0.3716, 0.3346, 16.7283, 18.5786, 18.5786
52.02, (496.387,-24.114), 52.4995, 100.0, 52.139474837095364, 50.94, 50.94, 0.3922, 0.3102, 15.5082, 19.6086, 19.6086
56.28, (497.438,-22.652), 56.7595, 100.0, 56.03945511313538, 54.48, 54.48, 0.4124, 0.2828, 14.1386, 20.618, 20.618
59.82, (498.431,-20.918), 60.2994, 100.0, 60.29943609916966, 61.26, 61.26, 0.4322, 0.2514, 12.568, 21.6113, 21.6113
67.08, (499.269,-19.327), 67.5594, 100.0, 66.77942541041256, 65.16, 65.16, 0.4578, 0.201, 10.0487, 22.8916, 22.8916
72, (500.004,-17.468), 72.4794, 100.0, 72.17941104605359, 70.56, 70.56, 0.4747, 0.157, 7.8498, 23.7356, 23.7356
70.32, (500.566,-15.549), 70.7994, 100.0, 71.21939473466958, 71.46, 71.46, 0.472, 0.1649, 8.2464, 23.6008, 23.6008
75.9, (501.146,-13.847), 76.3794, 100.0, 75.2993786639691, 74.04, 74.04, 0.4826, 0.1309, 6.5463, 24.1277, 24.1277
85.74, (501.475,-11.876), 86.2194, 100.0, 85.55935797670446, 84, 84, 0.4982, 0.0429, 2.1441, 24.9079, 24.9079
94.92, (501.443,-9.879), 95.3993, 100.0, 95.3993409579442, 94.5, 94.5, 0.4982, -0.0429, -2.1441, 24.9079, 24.9079
85.08, (501.454,-8.081), 85.5593, 100.0, 85.85932883080724, 86.52, 86.52, 0.4984, 0.0403, 2.0137, 24.9188, 24.9188
95.58, (501.452,-6.284), 96.0593, 100.0, 95.0393120130905, 93.12, 93.12, 0.4984, -0.0398, -1.9876, 24.9209, 24.9209
105.42, (501.098,-4.318), 105.8993, 100.0, 105.17929529028258, 103.62, 103.62, 0.4836, -0.1269, -6.3439, 24.1817, 24.1817
105.54, (500.486,-2.414), 106.0193, 100.0, 106.01928093447884, 106.68, 106.68, 0.4817, -0.134, -6.6978, 24.0861, 24.0861
94.98, (500.171,-0.644), 95.4593, 100.0, 96.23926069426139, 96.84, 96.84, 0.4975, -0.0502, -2.509, 24.8738, 24.8738
95.1, (500.077,1.353), 95.5792, 100.0, 95.21924544299976, 93.72, 93.72, 0.4983, -0.0413, -2.0659, 24.9145, 24.9145
105.3, (499.763,3.123), 105.7792, 100.0, 104.69923354953325, 103.14, 103.14, 0.4847, -0.1228, -6.1411, 24.234, 24.234
99.96, (499.267,5.059), 100.4392, 100.0, 100.85921722359598, 101.34, 101.34, 0.4918, -0.0901, -4.5044, 24.5909, 24.5909
102.3, (498.956,7.034), 102.7792, 100.0, 102.77919823221524, 101.28, 101.28, 0.4885, -0.1065, -5.3258, 24.4261, 24.4261
102.84, (498.514,8.778), 103.3192, 100.0, 102.53918393714069, 102.42, 102.42, 0.489, -0.1045, -5.2234, 24.4482, 24.4482
111.36, (497.911,10.682), 111.8392, 100.0, 112.49916403233128, 111.3, 111.3, 0.4635, -0.1875, -9.3733, 23.1763, 23.1763
100.98, (497.357,12.601), 101.4591, 100.0, 101.45914375059183, 102.54, 102.54, 0.4908, -0.0952, -4.7617, 24.5423, 24.5423
90.9, (497.162,14.388), 91.3791, 100.0, 92.51912737389344, 93, 93, 0.4997, -0.0178, -0.8899, 24.9842, 24.9842
91.68, (497.2,16.387), 92.1591, 100.0, 91.43910680340407, 90.24, 90.24, 0.4999, -0.0084, -0.4189, 24.9965, 24.9965
102.06, (496.966,18.371), 102.5391, 100.0, 101.87909022178725, 100.32, 100.32, 0.4901, -0.0988, -4.9414, 24.5068, 24.5068
101.7, (496.473,20.308), 102.1791, 100.0, 102.53908002486997, 103.14, 103.14, 0.489, -0.1045, -5.2234, 24.4482, 24.4482
91.56, (496.26,22.094), 92.0391, 100.0, 93.17905877176976, 93.72, 93.72, 0.4994, -0.0236, -1.1777, 24.9722, 24.9722
81.54, (496.366,24.088), 82.019, 100.0, 82.6790467505566, 83.28, 83.28, 0.4954, 0.0679, 3.3929, 24.7687, 24.7687
77.46, (496.771,26.046), 77.939, 100.0, 78.29903230276402, 78.9, 78.9, 0.4887, 0.1055, 5.2746, 24.4372, 24.4372
68.4, (497.376,27.95), 68.879, 100.0, 68.87901366190746, 68.82, 68.82, 0.4649, 0.1841, 9.2031, 23.2444, 23.2444
58.2, (498.188,29.554), 58.679, 100.0, 59.33899656553026, 60, 60, 0.428, 0.2586, 12.9283, 21.3977, 21.3977
48.54, (499.383,31.154), 49.019, 100.0, 49.31898196785247, 49.56, 49.56, 0.3764, 0.3291, 16.4541, 18.8219, 18.8219
58.56, (500.558,32.769), 59.039, 100.0, 59.0389700367802, 57.78, 57.78, 0.4266, 0.2608, 13.0401, 21.3297, 21.3297
67.86, (501.375,34.371), 68.339, 100.0, 67.61895351057943, 66.06, 66.06, 0.4607, 0.1942, 9.712, 23.0364, 23.0364
70.68, (502.142,36.217), 71.1589, 100.0, 70.79894017211254, 69.24, 69.24, 0.4708, 0.1684, 8.4192, 23.5397, 23.5397
79.5, (502.649,38.15), 79.9789, 100.0, 79.9789164895224, 78.36, 78.36, 0.4916, 0.0911, 4.5559, 24.5814, 24.5814
80.64, (502.876,39.935), 81.1189, 100.0, 82.19889593802068, 82.74, 82.74, 0.4948, 0.072, 3.6003, 24.7394, 24.7394
83.16, (503.227,41.903), 83.6389, 100.0, 83.57888173034681, 82.02, 82.02, 0.4964, 0.0601, 3.0034, 24.8189, 24.8189
73.44, (503.644,43.856), 73.9189, 100.0, 73.91886553963754, 74.22, 74.22, 0.4793, 0.1425, 7.1255, 23.963, 23.963
83.22, (504.011,45.616), 83.6989, 100.0, 82.97885120897564, 81.42, 81.42, 0.4957, 0.0653, 3.2632, 24.7861, 24.7861
84.96, (504.283,47.597), 85.4388, 100.0, 85.07883039463074, 83.58, 83.58, 0.4978, 0.0471, 2.3527, 24.889, 24.889
84.66, (504.372,49.594), 85.1388, 100.0, 85.55881208572816, 86.22, 86.22, 0.4982, 0.0429, 2.1441, 24.9079, 24.9079
88.26, (504.571,51.583), 88.7388, 100.0, 88.3787981371219, 86.82, 86.82, 0.4997, 0.0183, 0.9161, 24.9832, 24.9832
84.84, (504.618,53.581), 85.3188, 100.0, 85.31878004512497, 85.92, 85.92, 0.498, 0.045, 2.2484, 24.8987, 24.8987
90.72, (504.747,55.375), 91.1988, 100.0, 90.23876528949924, 88.62, 88.62, 0.5, 0.0021, 0.1047, 24.9998, 24.9998
100.32, (504.554,57.363), 100.7988, 100.0, 100.49875048318293, 99.24, 99.24, 0.4924, -0.087, -4.3498, 24.6187, 24.6187
109.68, (504.023,59.289), 110.1587, 100.0, 110.15873334539218, 108.96, 108.96, 0.4708, -0.1684, -8.4192, 23.5397, 23.5397
99.54, (503.531,61.225), 100.0187, 100.0, 100.01871761980993, 100.68, 100.68, 0.4931, -0.0829, -4.1434, 24.6543, 24.6543
89.64, (503.388,63.017), 90.1187, 100.0, 90.89869923887952, 91.5, 91.5, 0.5, -0.0037, -0.1833, 24.9993, 24.9993
99.78, (503.238,65.009), 100.2587, 100.0, 99.53868144898975, 98.04, 98.04, 0.4938, -0.0787, -3.9367, 24.6881, 24.6881
109.32, (502.737,66.942), 109.7987, 100.0, 109.7986677610014, 108.3, 108.3, 0.4718, -0.1654, -8.2711, 23.5921, 23.5921
102.42, (502.152,68.852), 102.8986, 100.0, 102.89864542319658, 103.56, 103.56, 0.4883, -0.1075, -5.3769, 24.4149, 24.4149
92.82, (501.899,70.833), 93.2986, 100.0, 93.29862494608842, 93.9, 93.9, 0.4994, -0.0246, -1.23, 24.9697, 24.9697
101.58, (501.697,72.62), 102.0586, 100.0, 100.9786129596315, 99.42, 99.42, 0.4916, -0.0911, -4.5559, 24.5814, 24.5814
106.38, (501.266,74.572), 106.8586, 100.0, 106.13860178579134, 104.88, 104.88, 0.4814, -0.135, -6.7482, 24.072, 24.072
104.4, (500.674,76.482), 104.8786, 100.0, 104.878579966387, 104.76, 104.76, 0.4843, -0.1243, -6.2172, 24.2146, 24.2146
114.24, (500.073,78.176), 114.7186, 100.0, 113.93856335014863, 112.74, 112.74, 0.4587, -0.1991, -9.9527, 22.9335, 22.9335
115.68, (499.306,80.023), 116.1585, 100.0, 115.43854766132996, 113.82, 113.82, 0.4533, -0.211, -10.5496, 22.6651, 22.6651
125.64, (498.288,81.741), 126.1185, 100.0, 125.81853070743527, 124.26, 124.26, 0.4079, -0.2892, -14.4607, 20.3933, 20.3933
135.48, (496.981,83.252), 135.9585, 100.0, 135.9585142213768, 134.28, 134.28, 0.3506, -0.3565, -17.8251, 17.529, 17.529
136.56, (495.63,84.44), 137.0385, 100.0, 137.7584976091873, 138.36, 138.36, 0.3392, -0.3673, -18.3669, 16.9604, 16.9604
126.18, (494.302,85.932), 126.6585, 100.0, 127.37847893541213, 127.92, 127.92, 0.3998, -0.3002, -15.0105, 19.9921, 19.9921
116.1, (493.263,87.638), 116.5785, 100.0, 116.99845752270954, 117.66, 117.66, 0.4474, -0.2233, -11.1628, 22.3695, 22.3695
113.34, (492.495,89.483), 113.8184, 100.0, 113.81843153595625, 112.2, 112.2, 0.4591, -0.1981, -9.9047, 22.9543, 22.9543
123.6, (491.641,91.066), 124.0784, 100.0, 122.93841296985545, 121.32, 121.32, 0.4219, -0.2684, -13.4178, 21.0942, 21.0942
127.38, (490.427,92.654), 127.8584, 100.0, 128.57839344957827, 129.18, 129.18, 0.3935, -0.3085, -15.4259, 19.6734, 19.6734
124.32, (489.322,94.32), 124.7984, 100.0, 124.438374632227, 122.82, 122.82, 0.4147, -0.2793, -13.9653, 20.7357, 20.7357
127.74, (488.087,95.891), 128.2184, 100.0, 128.21835461512447, 128.82, 128.82, 0.3954, -0.306, -15.302, 19.7699, 19.7699
121.32, (487.112,97.402), 121.7983, 100.0, 120.65833956048789, 119.52, 119.52, 0.4322, -0.2514, -12.568, 21.6113, 21.6113
116.58, (486.085,99.117), 117.0583, 100.0, 117.77832301085176, 118.38, 118.38, 0.4443, -0.2293, -11.4662, 22.2154, 22.2154
120.06, (485.209,100.914), 120.5383, 100.0, 119.81830849475384, 118.32, 118.32, 0.4359, -0.245, -12.2498, 21.7932, 21.7932
117.72, (484.173,102.624), 118.1983, 100.0, 118.55829169412914, 119.1, 119.1, 0.4411, -0.2354, -11.7676, 22.0573, 22.0573
107.64, (483.475,104.281), 108.1183, 100.0, 109.13828197091246, 109.74, 109.74, 0.4737, -0.16, -7.9988, 23.6858, 23.6858
109.62, (482.918,106.201), 110.0983, 100.0, 109.37826314635402, 107.82, 107.82, 0.473, -0.162, -8.0979, 23.6521, 23.6521
119.76, (482.087,108.017), 120.2382, 100.0, 119.87824324667436, 118.32, 118.32, 0.4356, -0.2455, -12.2726, 21.7803, 21.7803
128.82, (480.941,109.653), 129.2982, 100.0, 129.29822452846273, 128.82, 128.82, 0.3896, -0.3134, -15.6719, 19.478, 19.478
119.1, (479.941,111.147), 119.5782, 100.0, 119.93821167167067, 120.54, 120.54, 0.4353, -0.2459, -12.2954, 21.7675, 21.7675
109.5, (479.103,112.96), 109.9782, 100.0, 110.69819226312006, 111.3, 111.3, 0.4692, -0.1728, -8.6406, 23.4593, 23.4593
99.72, (478.593,114.892), 100.1982, 100.0, 100.55817840951647, 101.16, 101.16, 0.4923, -0.0875, -4.3756, 24.6141, 24.6141
89.94, (478.431,116.882), 90.4182, 100.0, 90.41815976641125, 90.96, 90.96, 0.5, 0.0005, 0.0262, 25, 25
80.28, (478.581,118.674), 80.7581, 100.0, 81.71814473106393, 82.38, 82.38, 0.4942, 0.0761, 3.8074, 24.7084, 24.7084
76.68, (479.051,120.617), 77.1581, 100.0, 76.49812893801858, 74.94, 74.94, 0.4852, 0.1208, 6.0396, 24.2595, 24.2595
81, (479.373,122.59), 81.4781, 100.0, 81.77811204311341, 82.14, 82.14, 0.4942, 0.0756, 3.7815, 24.7123, 24.7123
84.12, (479.71,124.56), 84.5981, 100.0, 84.2980997778649, 82.8, 82.8, 0.4971, 0.0538, 2.6913, 24.8547, 24.8547
94.38, (479.736,126.358), 94.8581, 100.0, 93.83808144384471, 92.28, 92.28, 0.4991, -0.0293, -1.4652, 24.957, 24.957
91.32, (479.556,128.349), 91.7981, 100.0, 92.51806410884646, 93.06, 93.06, 0.4997, -0.0178, -0.8899, 24.9842, 24.9842
80.94, (479.685,130.342), 81.418, 100.0, 82.1980411339252, 82.8, 82.8, 0.4948, 0.072, 3.6003, 24.7394, 24.7394
84, (480.023,132.312), 84.478, 100.0, 84.1180270531689, 82.56, 82.56, 0.4969, 0.0554, 2.7694, 24.8461, 24.8461
94.14, (480.045,134.309), 94.618, 100.0, 94.61801418877253, 93.12, 93.12, 0.4987, -0.0361, -1.8048, 24.9348, 24.9348
91.44, (479.874,136.1), 91.918, 100.0, 93.11799934334049, 93.36, 93.36, 0.4995, -0.023, -1.1515, 24.9735, 24.9735
81.42, (479.987,138.095), 81.898, 100.0, 82.7379863106981, 83.28, 83.28, 0.4954, 0.0673, 3.3669, 24.7722, 24.7722
71.94, (480.455,140.036), 72.418, 100.0, 72.41796766834842, 73.02, 73.02, 0.4754, 0.155, 7.7503, 23.7683, 23.7683
79.86, (480.963,141.968), 80.3379, 100.0, 80.33794731918299, 78.72, 78.72, 0.4922, 0.088, 4.4013, 24.6095, 24.6095
81.48, (481.307,143.734), 81.9579, 100.0, 80.93792767162863, 79.38, 79.38, 0.4931, 0.0829, 4.1434, 24.6543, 24.6543
91.74, (481.437,145.727), 92.2179, 100.0, 91.4379135679311, 90.18, 90.18, 0.4999, -0.0084, -0.4189, 24.9965, 24.9965
101.7, (481.2,147.71), 102.1779, 100.0, 102.17789454931419, 100.62, 100.62, 0.4896, -0.1014, -5.0697, 24.4806, 24.4806
104.58, (480.723,149.445), 105.0579, 100.0, 106.19788013446093, 106.5, 106.5, 0.4813, -0.1355, -6.7734, 24.0649, 24.0649
109.8, (480.196,151.373), 110.2779, 100.0, 109.61786245632547, 108.06, 108.06, 0.4724, -0.1639, -8.1969, 23.618, 23.618
118.92, (479.373,153.193), 119.3978, 100.0, 119.39784417881465, 117.84, 117.84, 0.4376, -0.2418, -12.0897, 21.8824, 21.8824
115.26, (478.4,154.939), 115.7378, 100.0, 115.73782426844812, 116.34, 116.34, 0.4522, -0.2134, -10.6682, 22.6095, 22.6095
105.12, (477.78,156.627), 105.5978, 100.0, 106.31781226718782, 106.98, 106.98, 0.481, -0.1365, -6.8238, 24.0507, 24.0507
97.86, (477.415,158.591), 98.3378, 100.0, 97.55780042646825, 97.08, 97.08, 0.4962, -0.0616, -3.0814, 24.8094, 24.8094
108, (476.972,160.538), 108.4778, 100.0, 107.81778072620986, 106.56, 106.56, 0.4773, -0.149, -7.451, 23.8638, 23.8638
110.88, (476.23,162.395), 111.3578, 100.0, 112.07776321786382, 112.38, 112.38, 0.4649, -0.1841, -9.2031, 23.2444, 23.2444
101.1, (475.681,164.315), 101.5777, 100.0, 101.93774845759593, 102.48, 102.48, 0.49, -0.0993, -4.9671, 24.5016, 24.5016
99.12, (475.441,166.098), 99.5977, 100.0, 98.87773249194267, 97.38, 97.38, 0.4946, -0.073, -3.6521, 24.7318, 24.7318
101.94, (474.993,168.047), 102.4177, 100.0, 103.13771921744109, 103.74, 103.74, 0.4878, -0.1096, -5.4791, 24.3922, 24.3922
94.38, (474.739,170.028), 94.8577, 100.0, 94.49770414549909, 93.36, 93.36, 0.4988, -0.0351, -1.7526, 24.9385, 24.9385
97.2, (474.459,172.007), 97.6777, 100.0, 97.67768972846392, 98.28, 98.28, 0.4961, -0.0627, -3.1333, 24.8029, 24.8029
93.42, (474.366,173.804), 93.8977, 100.0, 92.8176763871865, 91.26, 91.26, 0.4996, -0.0204, -1.0207, 24.9792, 24.9792
98.22, (474.103,175.785), 98.6977, 100.0, 99.41766216826802, 99.96, 99.96, 0.4939, -0.0777, -3.885, 24.6963, 24.6963
88.74, (473.989,177.779), 89.2176, 100.0, 89.21764072262832, 89.76, 89.76, 0.4999, 0.011, 0.5497, 24.994, 24.994
89.82, (474.093,179.576), 90.2976, 100.0, 89.57762660883377, 88.02, 88.02, 0.4999, 0.0079, 0.3927, 24.9969, 24.9969
88.92, (474.025,181.574), 89.3976, 100.0, 90.11760431596646, 90.66, 90.66, 0.5, 0.0031, 0.1571, 24.9995, 24.9995
78.6, (474.244,183.559), 79.0776, 100.0, 79.37758959758708, 79.98, 79.98, 0.4906, 0.0963, 4.813, 24.5323, 24.5323
69.18, (474.809,185.475), 69.6576, 100.0, 69.65756603631685, 70.26, 70.26, 0.4674, 0.1777, 8.8858, 23.3675, 23.3675
79.2, (475.305,187.203), 79.6776, 100.0, 78.59755080254405, 76.98, 76.98, 0.4893, 0.1029, 5.1466, 24.4645, 24.4645
88.98, (475.513,189.19), 89.4575, 100.0, 89.15753202861936, 87.66, 87.66, 0.4999, 0.0115, 0.5759, 24.9934, 24.9934
83.94, (475.568,191.187), 84.4175, 100.0, 84.83751800027957, 85.44, 85.44, 0.4976, 0.0491, 2.4569, 24.879, 24.879
74.94, (475.928,193.153), 75.4175, 100.0, 75.77750399262003, 76.32, 76.32, 0.4836, 0.1269, 6.3439, 24.1817, 24.1817
65.7, (476.604,195.033), 66.1775, 100.0, 66.17748712179595, 66.78, 66.78, 0.4557, 0.2058, 10.2879, 22.7851, 22.7851
55.5, (477.486,196.599), 55.9775, 100.0, 56.757471873872426, 57.72, 57.72, 0.4159, 0.2776, 13.8784, 20.794, 20.794
45.78, (478.746,198.149), 46.2575, 100.0, 46.917462148834616, 47.52, 47.52, 0.3623, 0.3446, 17.2278, 18.1163, 18.1163
35.76, (480.261,199.45), 36.2374, 100.0, 36.23744774860914, 36.84, 36.84, 0.2922, 0.4057, 20.2868, 14.6098, 14.6098
25.8, (481.805,200.372), 26.2774, 100.0, 27.357429354219185, 28.08, 28.08, 0.2261, 0.446, 22.2989, 11.3031, 11.3031
27.78, (483.626,201.197), 28.2574, 100.0, 27.477406778617457, 25.86, 25.86, 0.227, 0.4455, 22.2752, 11.3498, 11.3498
31.62, (485.352,202.206), 32.0974, 100.0, 32.09739173580941, 30.48, 30.48, 0.2621, 0.4258, 21.2886, 13.1071, 13.1071
41.88, (486.794,203.281), 42.3574, 100.0, 41.2773705091035, 40.08, 40.08, 0.3267, 0.3785, 18.9249, 16.3355, 16.3355
47.46, (488.176,204.724), 47.9374, 100.0, 48.59735232027864, 49.2, 49.2, 0.3723, 0.3338, 16.6893, 18.6136, 18.6136
37.26, (489.651,206.071), 37.7373, 100.0, 38.09733703169124, 38.76, 38.76, 0.3052, 0.396, 19.8019, 15.2605, 15.2605
27.42, (491.343,207.132), 27.8973, 100.0, 27.897321551289917, 28.56, 28.56, 0.2303, 0.4438, 22.1914, 11.5127, 11.5127
17.76, (493.003,207.823), 18.2373, 100.0, 19.257307542540193, 19.5, 19.5, 0.161, 0.4734, 23.669, 8.0484, 8.0484
8.64, (494.95,208.27), 9.1173, 100.0, 8.757296482715175, 9.06, 9.06, 0.072, 0.4948, 24.7394, 3.6003, 3.6003
18.96, (496.889,208.747), 19.4373, 100.0, 19.07727694070633, 17.52, 17.52, 0.1595, 0.4739, 23.6942, 7.974, 7.974
15.96, (498.582,209.358), 16.4373, 100.0, 17.217263102789087, 17.88, 17.88, 0.144, 0.4788, 23.9405, 7.2007, 7.2007
18.48, (500.515,209.868), 18.9573, 100.0, 18.117251737352774, 16.92, 16.92, 0.1515, 0.4765, 23.8245, 7.5759, 7.5759
17.88, (502.388,210.568), 18.3572, 100.0, 18.717228660359748, 19.02, 19.02, 0.1565, 0.4749, 23.7438, 7.825, 7.825
7.8, (504.338,210.997), 8.2772, 100.0, 8.27721598351158, 8.52, 8.52, 0.0679, 0.4954, 24.7687, 3.3929, 3.3929
358.26, (506.134,211.085), 358.5028, 100.0, 359.7027937099175, 0.18, 0.18, -0.0047, 0.5, 24.9989, -0.2356, -0.2356
355.26, (508.125,210.898), 355.5028, 100.0, 355.14278100747435, -6.3, -6.3, -0.0444, 0.498, 24.901, -2.2224, -2.2224
5.4, (510.122,210.913), 5.6428, 100.0, 5.282765874505374, 4.32, 4.32, 0.0439, 0.4981, 24.9033, 2.1963, 2.1963
13.44, (511.899,211.191), 13.6828, 100.0, 12.602751304398307, 11.34, 11.34, 0.107, 0.4884, 24.4205, 5.3513, 5.3513
11.7, (513.831,211.705), 11.9427, 100.0, 12.362730468335878, 13.2, 13.2, 0.105, 0.4889, 24.4428, 5.249, 5.249
19.92, (515.762,212.217), 20.1627, 100.0, 19.74270894747608, 18.42, 18.42, 0.1669, 0.4713, 23.566, 8.3452, 8.3452
11.76, (517.677,212.783), 12.0027, 100.0, 12.422689060442584, 12.96, 12.96, 0.1055, 0.4887, 24.4372, 5.2746, 5.2746
1.8, (519.463,212.999), 2.0427, 100.0, 3.3626778603821412, 4.2, 4.2, 0.0272, 0.4993, 24.9629, 1.3607, 1.3607
352.8, (521.459,212.921), 352.5573, 100.0, 352.9173148118404, -5.7, -5.7, -0.0595, 0.4964, 24.8221, -2.9774, -2.9774
2.76, (523.455,212.842), 2.5173, 100.0, 2.217299055023823, 1.38, 1.38, 0.0215, 0.4995, 24.977, 1.073, 1.073
6.06, (525.451,212.936), 6.3027, 100.0, 6.30269786929982, 4.98, 4.98, 0.0528, 0.4972, 24.8603, 2.6392, 2.6392
1.08, (527.242,213.111), 1.3227, 100.0, 1.982682126897145, 2.82, 2.82, 0.0152, 0.4998, 24.9885, 0.7591, 0.7591
352.98, (529.238,213.033), 352.2573, 100.0, 352.61730949810635, -5.16, -5.16, -0.058, 0.4966, 24.8313, -2.8994, -2.8994
343.56, (531.19,212.608), 342.8373, 100.0, 342.47729026741195, -15.78, -15.78, -0.1445, 0.4787, 23.933, -7.2258, -7.2258
353.22, (532.952,212.249), 352.4973, 100.0, 351.8372769842786, -8.46, -8.46, -0.0647, 0.4958, 24.7895, -3.2372, -3.2372
2.58, (534.947,212.163), 1.8573, 100.0, 1.4972600323242207, 1.08, 1.08, 0.0194, 0.4996, 24.9812, 0.9684, 0.9684
11.64, (536.931,212.395), 10.9172, 100.0, 10.557237801546878, 10.2, 10.2, 0.0978, 0.4903, 24.5171, 4.8901, 4.8901
12.84, (538.895,212.773), 12.1172, 100.0, 11.697221314254824, 11.28, 11.28, 0.1075, 0.4883, 24.4149, 5.3769, 5.3769
22.56, (540.794,213.391), 21.8372, 100.0, 21.53721073366227, 21.18, 21.18, 0.1894, 0.4627, 23.1369, 9.4703, 9.4703
32.7, (542.389,214.221), 31.9772, 100.0, 30.89719876536869, 30.54, 30.54, 0.2621, 0.4258, 21.2886, 13.1071, 13.1071
36.06, (543.999,215.406), 35.3372, 100.0, 35.75717957748336, 37.56, 37.56, 0.2973, 0.402, 20.1016, 14.8636, 14.8636
26.28, (545.713,216.433), 25.5572, 100.0, 25.557159783285083, 27.42, 27.42, 0.2214, 0.4483, 22.416, 11.069, 11.069
34.8, (547.27,217.332), 34.0771, 100.0, 33.297140262282326, 33.06, 33.06, 0.2797, 0.4144, 20.7211, 13.9871, 13.9871
26.76, (548.968,218.384), 26.0371, 100.0, 26.4571212740972, 28.26, 28.26, 0.2284, 0.4448, 22.2394, 11.4197, 11.4197
16.62, (550.824,219.121), 15.8971, 100.0, 16.197109251034686, 18, 18, 0.1455, 0.4784, 23.9178, 7.2759, 7.2759
7.14, (552.78,219.526), 6.4171, 100.0, 6.417090527706776, 8.28, 8.28, 0.0621, 0.4961, 24.8061, 3.1074, 3.1074
356.82, (554.578,219.581), 356.6971, 100.0, 357.7770799668188, -1.38, -1.38, -0.0183, 0.4997, 24.9832, -0.9161, -0.9161
347.28, (556.557,219.316), 347.1571, 100.0, 347.81705952866537, -11.34, -11.34, -0.1045, 0.489, 24.4482, -5.2234, -5.2234
337.32, (558.458,218.702), 337.197, 100.0, 337.1970397705853, -21.6, -21.6, -0.1928, 0.4613, 23.0668, -9.6396, -9.6396
339.96, (560.129,218.036), 339.837, 100.0, 340.79702825331276, -18.84, -18.84, -0.1634, 0.4725, 23.6266, -8.1722, -8.1722
332.88, (561.943,217.199), 332.757, 100.0, 332.0370117092656, -28.56, -28.56, -0.2335, 0.4421, 22.1064, -11.6751, -11.6751
342.72, (563.794,216.448), 342.597, 100.0, 342.23699748924713, -18.42, -18.42, -0.1515, 0.4765, 23.8245, -7.5759, -7.5759
352.38, (565.55,216.065), 352.257, 100.0, 351.47698234213027, -9.12, -9.12, -0.073, 0.4946, 24.7318, -3.6521, -3.6521
350.4, (567.538,215.851), 350.277, 100.0, 350.9369664994344, -7.86, -7.86, -0.0777, 0.4939, 24.6963, -3.885, -3.885
349.44, (569.489,215.412), 349.3169, 100.0, 348.5369464725776, -12.12, -12.12, -0.0983, 0.4902, 24.5119, -4.9158, -4.9158
350.94, (571.471,215.154), 350.8169, 100.0, 351.11693093481426, -7.62, -7.62, -0.0761, 0.4942, 24.7084, -3.8074, -3.8074
340.98, (573.215,214.718), 340.8569, 100.0, 341.69692077164507, -17.16, -17.16, -0.156, 0.475, 23.752, -7.8001, -7.8001
331.02, (575.045,213.916), 330.8969, 100.0, 331.6769075948273, -27.06, -27.06, -0.2363, 0.4407, 22.0326, -11.8138, -11.8138
328.14, (576.727,212.836), 328.0169, 100.0, 327.2968934642248, -33.66, -33.66, -0.2692, 0.4213, 21.066, -13.4619, -13.4619
324.12, (578.424,211.78), 323.9969, 100.0, 324.35688190359843, -34.32, -34.32, -0.2905, 0.407, 20.3478, -14.5247, -14.5247
327.42, (580.033,210.594), 327.2969, 100.0, 327.2968665053765, -33.66, -33.66, -0.2692, 0.4213, 21.066, -13.4619, -13.4619
327.36, (581.593,209.698), 327.2369, 100.0, 328.2568519183532, -30.9, -30.9, -0.2621, 0.4258, 21.2886, -13.1071, -13.1071
324.12, (583.22,208.534), 323.9968, 100.0, 324.296830645128, -34.8, -34.8, -0.2909, 0.4067, 20.3326, -14.546, -14.546
313.92, (584.722,207.218), 313.7968, 100.0, 313.79681176371264, -44.94, -44.94, -0.3602, 0.3468, 17.3413, -18.0077, -18.0077
307.62, (585.856,205.822), 307.4968, 100.0, 306.7767989274709, -54.12, -54.12, -0.3998, 0.3002, 15.0105, -19.9921, -19.9921
314.76, (587.201,204.346), 314.6368, 100.0, 315.356786348176, -43.8, -43.8, -0.3506, 0.3565, 17.8251, -17.529, -17.529
307.98, (588.489,202.818), 307.8568, 100.0, 307.8567744742355, -53.1, -53.1, -0.3941, 0.3077, 15.3847, -19.7056, -19.7056
315.06, (589.857,201.361), 314.9368, 100.0, 315.35676206194375, -43.8, -43.8, -0.3506, 0.3565, 17.8251, -17.529, -17.529
322.44, (591.187,200.151), 322.3167, 100.0, 321.53674862019705, -39.42, -39.42, -0.3102, 0.3922, 19.6086, -15.5082, -15.5082
332.94, (592.873,199.08), 332.8167, 100.0, 332.09672937684167, -28.92, -28.92, -0.233, 0.4424, 22.1186, -11.6519, -11.6519
325.62, (594.611,198.095), 325.4967, 100.0, 325.8567155281663, -32.88, -32.88, -0.2797, 0.4144, 20.7211, -13.9871, -13.9871
335.7, (596.175,197.209), 335.5767, 100.0, 334.4367049881413, -26.46, -26.46, -0.2148, 0.4515, 22.5759, -10.7391, -10.7391
325.62, (597.927,196.249), 325.4967, 100.0, 326.6366896912999, -32.1, -32.1, -0.2741, 0.4182, 20.9095, -13.7037, -13.7037
321.54, (599.552,195.083), 321.4167, 100.0, 322.1366672818557, -36.72, -36.72, -0.306, 0.3954, 19.7699, -15.302, -15.302
311.94, (601.003,193.71), 311.8167, 100.0, 312.2366532946125, -46.62, -46.62, -0.3695, 0.3369, 16.8447, -18.4731, -18.4731
310.98, (602.13,192.308), 310.8566, 100.0, 310.01663974535353, -50.88, -50.88, -0.3822, 0.3223, 16.1164, -19.1118, -19.1118
319.92, (603.551,190.903), 319.7966, 100.0, 319.07661993568547, -41.58, -41.58, -0.3267, 0.3785, 18.9249, -16.3355, -16.3355
322.44, (605.158,189.714), 322.3166, 100.0, 322.67660294255614, -36.12, -36.12, -0.3023, 0.3983, 19.9132, -15.115, -15.115
312.6, (606.625,188.358), 312.4766, 100.0, 312.8365914852353, -46.32, -46.32, -0.3659, 0.3407, 17.0372, -18.2957, -18.2957
302.88, (607.72,186.932), 302.7566, 100.0, 303.77657538863184, -55.32, -55.32, -0.415, 0.2789, 13.9436, -20.7503, -20.7503
293.04, (608.663,185.171), 292.9166, 100.0, 293.63656040248077, -65.52, -65.52, -0.4576, 0.2015, 10.0727, -22.881, -22.881
284.16, (609.282,183.272), 284.0365, 100.0, 283.616543739908, -75.54, -75.54, -0.4857, 0.1188, 5.9379, -24.2846, -24.2846
294.3, (609.948,181.389), 294.1765, 100.0, 294.17652595003807, -66.84, -66.84, -0.4557, 0.2058, 10.2879, -22.7851, -22.7851
304.14, (610.829,179.821), 304.0165, 100.0, 303.23651346508876, -57.72, -57.72, -0.4176, 0.2749, 13.7474, -20.8808, -20.8808
294.12, (611.811,178.082), 293.9965, 100.0, 294.71649724516004, -63.96, -63.96, -0.4537, 0.21, 10.5021, -22.6871, -22.6871
284.46, (612.418,176.39), 284.3365, 100.0, 285.2964814029202, -73.38, -73.38, -0.482, 0.1329, 6.6473, -24.1001, -24.1001
274.2, (612.755,174.421), 274.0765, 100.0, 274.8564629386738, -83.82, -83.82, -0.4981, 0.0434, 2.1702, -24.9056, -24.9056
264.48, (612.737,172.424), 264.3564, 100.0, 264.71644843080577, -94.08, -94.08, -0.498, -0.045, -2.2484, -24.8987, -24.8987
270.84, (612.608,170.43), 270.7164, 100.0, 270.3564331427572, -90.54, -90.54, -0.5, 0.0042, 0.2094, -24.9991, -24.9991
281.04, (612.787,168.641), 280.9164, 100.0, 279.7764186960864, -81.18, -81.18, -0.4926, 0.086, 4.2982, -24.6277, -24.6277
275.4, (613.141,166.674), 275.2764, 100.0, 276.11639937149056, -82.5, -82.5, -0.497, 0.0543, 2.7173, -24.8519, -24.8519
265.86, (613.16,164.677), 265.7364, 100.0, 266.09638247575623, -92.76, -92.76, -0.4989, -0.033, -1.6481, -24.9456, -24.9456
255.96, (612.831,162.707), 255.8364, 100.0, 255.8363677605206, -102.78, -102.78, -0.4851, -0.1213, -6.065, -24.2532, -24.2532
246.24, (612.241,161.008), 246.1164, 100.0, 246.47635653642135, -112.32, -112.32, -0.4589, -0.1986, -9.9287, -22.9439, -22.9439
235.98, (611.285,159.254), 235.8563, 100.0, 236.5763389746, -122.28, -122.28, -0.4179, -0.2745, -13.7256, -20.8952, -20.8952
234.18, (610.072,157.665), 234.0563, 100.0, 233.3363242940396, -127.86, -127.86, -0.4017, -0.2977, -14.8846, -20.086, -20.086
243.24, (609.034,155.958), 243.1163, 100.0, 242.69630842910868, -118.38, -118.38, -0.4448, -0.2284, -11.4197, -22.2394, -22.2394
246.9, (608.263,154.114), 246.7763, 100.0, 246.776288179394, -111.54, -111.54, -0.4599, -0.1962, -9.8084, -22.9955, -22.9955
253.44, (607.604,152.441), 253.3163, 100.0, 252.53627534730478, -108.54, -108.54, -0.4773, -0.149, -7.451, -23.8638, -23.8638
262.32, (607.167,150.492), 262.1963, 100.0, 261.7762533270797, -99.24, -99.24, -0.495, -0.0705, -3.5225, -24.7506, -24.7506
261.36, (606.9,148.51), 261.2362, 100.0, 260.8162303329508, -99.84, -99.84, -0.4938, -0.0787, -3.9367, -24.6881, -24.6881
271.68, (606.789,146.516), 271.5562, 100.0, 271.19621852447915, -89.52, -89.52, -0.4999, 0.0115, 0.5759, -24.9934, -24.9934
278.7, (606.992,144.729), 278.5762, 100.0, 279.2362052809538, -79.98, -79.98, -0.4933, 0.0813, 4.0659, -24.6671, -24.6671
268.8, (607.124,142.736), 268.6762, 100.0, 269.3961843198729, -89.76, -89.76, -0.5, -0.0042, -0.2094, -24.9991, -24.9991
274.98, (607.135,140.738), 274.8562, 100.0, 274.49616478538394, -86.4, -86.4, -0.4984, 0.0403, 2.0137, -24.9188, -24.9188
268.98, (607.266,138.744), 268.8561, 100.0, 269.216146085416, -89.28, -89.28, -0.5, -0.0058, -0.288, -24.9983, -24.9983
259.56, (607.055,136.758), 259.4361, 100.0, 259.4361304567182, -99.72, -99.72, -0.4917, -0.0906, -4.5301, -24.5861, -24.5861
249.06, (606.569,135.027), 248.9361, 100.0, 250.0761164467889, -108.96, -108.96, -0.4704, -0.1694, -8.4684, -23.522, -23.522
240.84, (605.709,133.224), 240.7161, 100.0, 240.05609812966176, -119.1, -119.1, -0.4338, -0.2486, -12.4319, -21.6898, -21.6898
250.08, (604.891,131.402), 249.9561, 100.0, 250.3160833558949, -110.58, -110.58, -0.4711, -0.1674, -8.3698, -23.5573, -23.5573
260.22, (604.378,129.472), 260.0961, 100.0, 259.79606603460263, -101.16, -101.16, -0.4923, -0.0875, -4.3756, -24.6141, -24.6141
269.04, (604.181,127.484), 268.916, 100.0, 268.9160450553909, -92.1, -92.1, -0.4999, -0.0084, -0.4189, -24.9965, -24.9965
273.54, (604.173,125.685), 273.416, 100.0, 272.33602974192826, -88.74, -88.74, -0.4995, 0.0215, 1.073, -24.977, -24.977
283.56, (604.456,123.708), 283.436, 100.0, 282.7160142489108, -78.36, -78.36, -0.4875, 0.1111, 5.5557, -24.3749, -24.3749
282.3, (604.991,121.781), 282.176, 100.0, 282.83599840907505, -76.02, -76.02, -0.4873, 0.1121, 5.6068, -24.3632, -24.3632
272.76, (605.243,119.8), 272.636, 100.0, 272.6359853918587, -86.52, -86.52, -0.4994, 0.0241, 1.2038, -24.971, -24.971
276.36, (605.313,118.002), 276.236, 100.0, 275.45596935237336, -85.44, -85.44, -0.4976, 0.0486, 2.4309, -24.8815, -24.8815
281.82, (605.621,116.026), 281.696, 100.0, 281.39595295742515, -79.56, -79.56, -0.4899, 0.0999, 4.9927, -24.4964, -24.4964
283.56, (606.144,114.097), 283.4359, 100.0, 283.4359371009285, -75.6, -75.6, -0.4861, 0.1172, 5.8616, -24.3031, -24.3031
279.9, (606.433,112.321), 279.7759, 100.0, 278.9959181371888, -81.9, -81.9, -0.4937, 0.0793, 3.9626, -24.684, -24.684
279.42, (606.86,110.368), 279.2959, 100.0, 280.37590054213103, -78.48, -78.48, -0.4916, 0.0911, 4.5559, -24.5814, -24.5814
279.9, (607.113,108.384), 279.7759, 100.0, 279.0558840559627, -81.54, -81.54, -0.4936, 0.0798, 3.9884, -24.6798, -24.6798
285, (607.554,106.641), 284.8759, 100.0, 286.01587031480324, -73.08, -73.08, -0.4803, 0.139, 6.9496, -24.0146, -24.0146
274.68, (607.906,104.675), 274.5559, 100.0, 275.2758524857363, -83.58, -83.58, -0.4978, 0.0471, 2.3527, -24.889, -24.889
273.84, (607.969,102.677), 273.7158, 100.0, 273.3558373584709, -87.48, -87.48, -0.4991, 0.0304, 1.5175, -24.9539, -24.9539
278.22, (608.223,100.693), 278.0958, 100.0, 278.0958222941823, -82.8, -82.8, -0.4949, 0.0715, 3.5744, -24.7432, -24.7432
288.84, (608.644,98.945), 288.7158, 100.0, 287.6358066237824, -73.26, -73.26, -0.4762, 0.1525, 7.6258, -23.8086, -23.8086
295.56, (609.437,97.112), 295.4358, 100.0, 296.215797131032, -62.94, -62.94, -0.4481, 0.2218, 11.0924, -22.4044, -22.4044
285.24, (610.133,95.24), 285.1158, 100.0, 285.4757846094453, -73.32, -73.32, -0.4816, 0.1345, 6.723, -24.0791, -24.0791
278.4, (610.46,93.472), 278.2758, 100.0, 277.1357700563763, -82.8, -82.8, -0.496, 0.0632, 3.1593, -24.7996, -24.7996
288.42, (610.914,91.527), 288.2958, 100.0, 287.8757567004988, -73.08, -73.08, -0.4755, 0.1545, 7.7254, -23.7764, -23.7764
280.8, (611.458,89.605), 280.6757, 100.0, 281.0357429279601, -77.7, -77.7, -0.4905, 0.0968, 4.8387, -24.5273, -24.5273
271.74, (611.675,87.619), 271.6157, 100.0, 271.61572823049306, -87.42, -87.42, -0.4998, 0.0152, 0.7591, -24.9885, -24.9885
261.6, (611.566,85.824), 261.4757, 100.0, 262.25571730042026, -96.54, -96.54, -0.4956, -0.0663, -3.3151, -24.7792, -24.7792
267.12, (611.301,83.843), 266.9957, 100.0, 266.27570167198996, -94.74, -94.74, -0.499, -0.0314, -1.5698, -24.9507, -24.9507
258.54, (611.079,81.858), 258.4157, 100.0, 258.77569008957664, -100.02, -100.02, -0.4906, -0.0963, -4.813, -24.5323, -24.5323
266.76, (610.798,79.881), 266.6357, 100.0, 266.2756724088841, -94.68, -94.68, -0.499, -0.0314, -1.5698, -24.9507, -24.9507
263.1, (610.712,78.084), 262.9757, 100.0, 263.7556583337862, -94.98, -94.98, -0.4972, -0.0533, -2.6653, -24.8575, -24.8575
253.32, (610.314,76.126), 253.1956, 100.0, 253.85564005118798, -104.88, -104.88, -0.4806, -0.138, -6.8993, -24.0291, -24.0291
243.12, (609.573,74.271), 242.9956, 100.0, 243.47562220926451, -115.38, -115.38, -0.4479, -0.2223, -11.1159, -22.3928, -22.3928
249.78, (608.735,72.457), 249.6556, 100.0, 249.29560746470474, -111.6, -111.6, -0.4681, -0.1758, -8.7879, -23.4046, -23.4046
254.46, (608.15,70.756), 254.3356, 100.0, 253.19559283050802, -107.52, -107.52, -0.479, -0.1435, -7.1757, -23.9481, -23.9481
264.54, (607.773,68.794), 264.4156, 100.0, 263.6355777382048, -97.38, -97.38, -0.497, -0.0543, -2.7173, -24.8519, -24.8519
263.46, (607.659,66.798), 263.3356, 100.0, 264.41556084648073, -94.32, -94.32, -0.4977, -0.0476, -2.3788, -24.8866, -24.8866
253.8, (607.276,64.838), 253.6755, 100.0, 254.33553948643615, -104.46, -104.46, -0.4817, -0.134, -6.6978, -24.0861, -24.0861
250.32, (606.59,62.96), 250.1955, 100.0, 249.415525247145, -111.18, -111.18, -0.4685, -0.1748, -8.7388, -23.4229, -23.4229
254.22, (606.053,61.035), 254.0955, 100.0, 254.45551229771834, -104.34, -104.34, -0.482, -0.1329, -6.6473, -24.1001, -24.1001
244.38, (605.417,59.353), 244.2555, 100.0, 245.03549656594274, -113.82, -113.82, -0.4537, -0.21, -10.5021, -22.6871, -22.6871
244.98, (604.48,57.587), 244.8555, 100.0, 244.13548775698936, -116.76, -116.76, -0.4504, -0.2171, -10.8572, -22.5194, -22.5194
253.74, (603.78,55.715), 253.6155, 100.0, 253.6154696031896, -107.34, -107.34, -0.48, -0.14, -6.9999, -24, -24
262.98, (603.391,53.755), 262.8555, 100.0, 262.49545196217167, -98.16, -98.16, -0.4959, -0.0642, -3.2112, -24.7929, -24.7929
271.92, (603.318,51.958), 271.7954, 100.0, 271.135439428671, -89.82, -89.82, -0.4999, 0.011, 0.5497, -24.994, -24.994
281.28, (603.551,49.974), 281.1554, 100.0, 280.3754252024392, -80.52, -80.52, -0.4916, 0.0911, 4.5559, -24.5814, -24.5814
290.28, (604.102,48.054), 290.1554, 100.0, 289.7954042817789, -71.16, -71.16, -0.4701, 0.1704, 8.5177, -23.5042, -23.5042
297.78, (604.953,46.247), 297.6554, 100.0, 297.6553869896624, -61.14, -61.14, -0.4424, 0.233, 11.6519, -22.1186, -22.1186
287.52, (605.646,44.587), 287.3954, 100.0, 288.53537529289883, -70.56, -70.56, -0.4737, 0.16, 7.9988, -23.6858, -23.6858
293.46, (606.295,42.698), 293.3354, 100.0, 293.03536025001284, -67.92, -67.92, -0.4597, 0.1967, 9.8325, -22.9853, -22.9853
303.9, (607.255,40.946), 303.7753, 100.0, 303.41534718034916, -57.54, -57.54, -0.4168, 0.2763, 13.813, -20.8375, -20.8375
299.28, (608.252,39.449), 299.1553, 100.0, 299.9353335758817, -58.92, -58.92, -0.4328, 0.2505, 12.5227, -21.6375, -21.6375
289.02, (609.074,37.629), 288.8953, 100.0, 289.61531802780786, -69.18, -69.18, -0.4706, 0.1689, 8.4438, -23.5309, -23.5309
292.62, (609.718,35.736), 292.4953, 100.0, 292.19530539277906, -68.82, -68.82, -0.4625, 0.1899, 9.4945, -23.1269, -23.1269
294.3, (610.595,33.939), 294.1753, 100.0, 294.53528434103254, -64.26, -64.26, -0.4544, 0.2086, 10.4308, -22.72, -22.72
284.82, (611.197,32.245), 284.6953, 100.0, 285.3552713984409, -73.38, -73.38, -0.4819, 0.1335, 6.6725, -24.0931, -24.0931
274.38, (611.538,30.277), 274.2553, 100.0, 274.9752546054186, -83.94, -83.94, -0.498, 0.0444, 2.2224, -24.901, -24.901
270.06, (611.548,28.278), 269.9352, 100.0, 269.5752362422113, -91.08, -91.08, -0.5, -0.0026, -0.1309, -24.9997, -24.9997
280.38, (611.736,26.29), 280.2552, 100.0, 279.83521871646076, -81.12, -81.12, -0.4925, 0.0865, 4.324, -24.6232, -24.6232
290.28, (612.268,24.364), 290.1552, 100.0, 289.7352035580572, -71.22, -71.22, -0.4703, 0.1699, 8.4931, -23.5131, -23.5131
296.76, (613.025,22.733), 296.6352, 100.0, 297.3551910525449, -61.74, -61.74, -0.4436, 0.2307, 11.536, -22.1793, -22.1793
286.44, (613.773,20.881), 286.3152, 100.0, 287.455171933648, -71.64, -71.64, -0.4766, 0.151, 7.5509, -23.8324, -23.8324
279.54, (614.185,18.926), 279.4152, 100.0, 278.7551540763851, -81.84, -81.84, -0.494, 0.0772, 3.8591, -24.7003, -24.7003
289.68, (614.687,16.993), 289.5551, 100.0, 289.195140441435, -71.94, -71.94, -0.4718, 0.1654, 8.2711, -23.5921, -23.5921
297.42, (615.521,15.178), 297.2951, 100.0, 297.655122538895, -61.5, -61.5, -0.4424, 0.233, 11.6519, -22.1186, -22.1186
298.98, (616.394,13.379), 298.8551, 100.0, 298.8551093632051, -62.1, -62.1, -0.4374, 0.2423, 12.1126, -21.8697, -21.8697
297.84, (617.327,11.84), 297.7151, 100.0, 298.79509677284153, -60, -60, -0.4376, 0.2418, 12.0897, -21.8824, -21.8824
288.3, (618.115,10.005), 288.1751, 100.0, 288.9550831130605, -70.2, -70.2, -0.4725, 0.1634, 8.1722, -23.6266, -23.6266
278.52, (618.573,8.061), 278.3951, 100.0, 278.7550672056009, -80.4, -80.4, -0.494, 0.0772, 3.8591, -24.7003, -24.7003
268.26, (618.683,6.066), 268.1351, 100.0, 268.4950518920571, -90.3, -90.3, -0.4999, -0.012, -0.6021, -24.9927, -24.9927
275.1, (618.691,4.268), 274.975, 100.0, 273.8950428176483, -86.7, -86.7, -0.4988, 0.0351, 1.7526, -24.9385, -24.9385
285.12, (619.036,2.301), 284.995, 100.0, 284.575020894791, -76.5, -76.5, -0.4836, 0.1269, 6.3439, -24.1817, -24.1817
278.76, (619.502,0.358), 278.635, 100.0, 278.935001301119, -79.56, -79.56, -0.4938, 0.0787, 3.9367, -24.6881, -24.6881
280.5, (619.726,-1.428), 280.375, 100.0, 279.6549865705199, -81.3, -81.3, -0.4927, 0.0849, 4.2466, -24.6367, -24.6367
279.24, (620.153,-3.381), 279.115, 100.0, 279.8349683493274, -78.9, -78.9, -0.4925, 0.0865, 4.324, -24.6232, -24.6232
282.9, (620.464,-5.355), 282.775, 100.0, 282.41495312495175, -78.54, -78.54, -0.4881, 0.1086, 5.428, -24.4036, -24.4036
292.8, (621.082,-7.255), 292.6749, 100.0, 292.31493794931635, -68.64, -68.64, -0.4621, 0.1909, 9.5429, -23.107, -23.107
300.66, (622.017,-9.02), 300.5349, 100.0, 300.9549224467334, -58.5, -58.5, -0.4282, 0.2581, 12.9059, -21.4112, -21.4112
292.32, (622.874,-10.825), 292.1949, 100.0, 291.77491237378916, -68.46, -68.46, -0.4639, 0.1865, 9.3247, -23.1959, -23.1959
302.22, (623.698,-12.423), 302.0949, 100.0, 301.3148937191771, -59.64, -59.64, -0.4266, 0.2608, 13.0401, -21.3297, -21.3297
306.84, (624.886,-14.03), 306.7149, 100.0, 307.4348767476951, -51.66, -51.66, -0.3964, 0.3048, 15.2398, -19.8179, -19.8179
301.32, (625.954,-15.719), 301.1949, 100.0, 300.8348538592671, -60.24, -60.24, -0.4288, 0.2572, 12.861, -21.4382, -21.4382
308.46, (627.134,-17.331), 308.3348, 100.0, 308.6948366412787, -50.46, -50.46, -0.3896, 0.3134, 15.6719, -19.478, -19.478
298.8, (628.124,-18.832), 298.6748, 100.0, 299.09481520693583, -59.64, -59.64, -0.4364, 0.2441, 12.2041, -21.8188, -21.8188
288.48, (628.93,-20.659), 288.3548, 100.0, 288.77479945605694, -69.9, -69.9, -0.473, 0.162, 8.0979, -23.6521, -23.6521
278.88, (629.367,-22.403), 278.7548, 100.0, 279.89478694255365, -79.2, -79.2, -0.4924, 0.087, 4.3498, -24.6187, -24.6187
269.1, (629.524,-24.394), 268.9748, 100.0, 269.69477424488275, -89.04, -89.04, -0.5, -0.0016, -0.0785, -24.9999, -24.9999
258.84, (629.322,-26.381), 258.7148, 100.0, 259.1347582804385, -99.6, -99.6, -0.4912, -0.0932, -4.6588, -24.5621, -24.5621
266.22, (629.029,-28.357), 266.0947, 100.0, 266.0947434540461, -94.92, -94.92, -0.4989, -0.033, -1.6481, -24.9456, -24.9456
276.42, (629.074,-30.155), 276.2947, 100.0, 275.5147257264052, -85.5, -85.5, -0.4976, 0.0491, 2.4569, -24.879, -24.879
276.54, (629.38,-32.131), 276.4147, 100.0, 276.83471012066013, -82.2, -82.2, -0.4963, 0.0606, 3.0294, -24.8158, -24.8158
267.54, (629.439,-34.128), 267.4147, 100.0, 267.4146934048852, -91.26, -91.26, -0.4995, -0.0215, -1.073, -24.977, -24.977
258.72, (629.214,-35.912), 258.5947, 100.0, 259.31467542515634, -99.48, -99.48, -0.4915, -0.0916, -4.5816, -24.5766, -24.5766
249.42, (628.66,-37.832), 249.2947, 100.0, 249.71465929838516, -108.96, -108.96, -0.4694, -0.1723, -8.6161, -23.4683, -23.4683
240.12, (627.791,-39.631), 239.9946, 100.0, 240.35464087125885, -118.44, -118.44, -0.4351, -0.2464, -12.3182, -21.7546, -21.7546
230.58, (626.765,-41.107), 230.4546, 100.0, 231.17462588547653, -127.92, -127.92, -0.3902, -0.3126, -15.6311, -19.5108, -19.5108
220.44, (625.373,-42.54), 220.3146, 100.0, 221.03460859373777, -137.7, -137.7, -0.3291, -0.3764, -18.8219, -16.4541, -16.4541
217.26, (623.772,-43.737), 217.1346, 100.0, 217.13459306126342, -143.82, -143.82, -0.3027, -0.3979, -19.8974, -15.1358, -15.1358
221.34, (622.277,-45.064), 221.2146, 100.0, 221.2145780782059, -137.52, -137.52, -0.3303, -0.3754, -18.7701, -16.5131, -16.5131
211.74, (620.826,-46.126), 211.6146, 100.0, 212.0345617928865, -146.76, -146.76, -0.2661, -0.4233, -21.1641, -13.3071, -13.3071
201.9, (619.041,-47.022), 201.7745, 100.0, 202.07454350986325, -157.14, -157.14, -0.1889, -0.4629, -23.1468, -9.446, -9.446
192, (617.127,-47.593), 191.8745, 100.0, 192.29452962905273, -167.28, -167.28, -0.1075, -0.4883, -24.4149, -5.3769, -5.3769
181.98, (615.343,-47.816), 181.8545, 100.0, 182.99451925080064, -175.92, -175.92, -0.0272, -0.4993, -24.9629, -1.3607, -1.3607
172.32, (613.347,-47.735), 172.1945, 100.0, 172.85450683621528, 174.06, 174.06, 0.0611, -0.4963, -24.8126, 3.0554, 3.0554
162.48, (611.395,-47.315), 162.3545, 100.0, 163.01449527207038, 164.28, 164.28, 0.145, -0.4785, -23.9254, 7.2509, 7.2509
152.64, (609.545,-46.559), 152.5145, 100.0, 153.29447356247573, 154.26, 154.26, 0.2237, -0.4472, -22.3578, 11.1862, 11.1862
143.34, (607.854,-45.496), 143.2145, 100.0, 143.2144530089842, 144.48, 144.48, 0.2985, -0.4011, -20.0548, 14.9266, 14.9266
133.56, (606.371,-44.158), 133.4344, 100.0, 133.43444031342835, 134.28, 134.28, 0.3623, -0.3446, -17.2278, 18.1163, 18.1163
123.78, (605.256,-42.747), 123.6544, 100.0, 124.37442677574832, 125.28, 125.28, 0.4121, -0.2832, -14.1602, 20.6032, 20.6032
113.88, (604.296,-40.995), 113.7544, 100.0, 114.1144088287115, 115.26, 115.26, 0.4559, -0.2053, -10.264, 22.7958, 22.7958
103.92, (603.707,-39.296), 103.7944, 100.0, 104.87439358659746, 106.02, 106.02, 0.483, -0.1294, -6.4705, 24.1481, 24.1481
94.08, (603.381,-37.326), 93.9544, 100.0, 94.73437523674015, 95.88, 95.88, 0.4982, -0.0424, -2.118, 24.9101, 24.9101
102.54, (603.078,-35.351), 102.4144, 100.0, 102.77435016693097, 102.54, 102.54, 0.4874, -0.1116, -5.5813, 24.369, 24.369
92.64, (602.825,-33.37), 92.5143, 100.0, 92.51432894020998, 93.72, 93.72, 0.4995, -0.023, -1.1515, 24.9735, 24.9735
102.48, (602.588,-31.588), 102.3543, 100.0, 101.63431676485797, 100.68, 100.68, 0.4895, -0.1019, -5.0953, 24.4752, 24.4752
110.52, (601.995,-29.68), 110.3943, 100.0, 111.11430418998957, 110.88, 110.88, 0.466, -0.1811, -9.0569, 23.3018, 23.3018
102.24, (601.461,-27.755), 102.1143, 100.0, 102.11428397923788, 101.58, 101.58, 0.4886, -0.106, -5.3002, 24.4317, 24.4317
103.08, (600.984,-26.02), 102.9543, 100.0, 103.67427244688929, 105.06, 105.06, 0.4856, -0.1193, -5.9633, 24.2784, 24.2784
94.26, (600.684,-24.045), 94.4943, 100.0, 94.8542591151955, 95.7, 95.7, 0.4984, -0.0403, -2.0137, 24.9188, 24.9188
90.54, (600.676,-22.046), 90.7742, 100.0, 90.77424708626015, 89.46, 89.46, 0.5, -0.0047, -0.2356, 24.9989, 24.9989
99.78, (600.487,-20.258), 100.0142, 100.0, 100.37423044529739, 99.12, 99.12, 0.4922, -0.088, -4.4013, 24.6095, 24.6095
90, (600.333,-18.267), 90.2342, 100.0, 90.2342157068871, 90.72, 90.72, 0.5, 0, 0, 25, 25
96.48, (600.188,-16.474), 96.7142, 100.0, 97.73419848529643, 97.86, 97.86, 0.4957, -0.0653, -3.2632, 24.7861, 24.7861
89.64, (600.117,-14.478), 89.8742, 100.0, 89.15418475101717, 88.2, 88.2, 0.4999, 0.0094, 0.4712, 24.9956, 24.9956
90.42, (600.031,-12.48), 90.6542, 100.0, 91.01417046847332, 91.92, 91.92, 0.5, -0.0068, -0.3403, 24.9977, 24.9977
89.04, (600.123,-10.483), 89.2742, 100.0, 89.27415631893088, 87.96, 87.96, 0.4999, 0.0084, 0.4189, 24.9965, 24.9965
91.02, (600.039,-8.686), 91.2541, 100.0, 92.33414145126035, 93.18, 93.18, 0.4997, -0.0183, -0.9161, 24.9832, 24.9832
81.54, (600.161,-6.692), 81.7741, 100.0, 82.13412521879243, 83.04, 83.04, 0.495, 0.0705, 3.5225, 24.7506, 24.7506
71.4, (600.625,-4.75), 71.6341, 100.0, 71.99410376174379, 72.84, 72.84, 0.4749, 0.1565, 7.825, 23.7438, 23.7438
61.44, (601.431,-2.922), 61.6741, 100.0, 61.97408270640402, 62.76, 62.76, 0.4404, 0.2367, 11.8368, 22.0202, 22.0202
51.66, (602.542,-1.261), 51.8941, 100.0, 52.254064066423666, 52.8, 52.8, 0.3941, 0.3077, 15.3847, 19.7056, 19.7056
42.18, (603.917,0.187), 42.4141, 100.0, 42.41405182787708, 42.84, 42.84, 0.3357, 0.3705, 18.526, 16.7865, 16.7865
32.16, (605.354,1.268), 32.394, 100.0, 33.11403902160658, 33.9, 33.9, 0.2714, 0.4199, 20.9952, 13.572, 13.572
30.06, (607.106,2.23), 30.294, 100.0, 29.334028664325622, 28.32, 28.32, 0.2432, 0.4369, 21.8443, 12.1584, 12.1584
