Rotation, Location, Gyro Rotation, Sensor Optical Flow, Battery Level, Yaw, Pitch, Roll, Vy, Vx, AccX, AccY
0, (0.201,0), 0, 100.0, 4.892546030532685E-7, 0, 0, 0, 0.051, 2.55, 0, 0
0, (0.214,0), 360, 100.0, 359.99999398882727, 0, 0, 0, 0, 0, 0, 0
0, (0.214,0), 360, 100.0, 359.99998421814763, 0, 0, 0, 0, 0, 0, 0
0, (0.214,0), 360, 100.0, 359.9999701444773, 0, 0, 0, 0, 0, 0, 0
0, (0.214,0), 360, 100.0, 359.99995132978574, 0, 0, 0, 0, 0, 0, 0
0, (0.214,0), 359.9999, 100.0, 359.99992978167285, 0, 0, 0, 0, 0, 0, 0
0, (0.214,0), 359.9999, 100.0, 359.9999186799921, 0, 0, 0, 0, 0, 0, 0
0, (0.214,0), 359.9999, 100.0, 359.9999089689644, 0, 0, 0, 0, 0, 0, 0
0, (0.214,0), 359.9999, 100.0, 359.99988939140894, 0, 0, 0, 0, 0, 0, 0
0, (0.214,0), 359.9999, 100.0, 359.9998725612078, 0, 0, 0, 0, 0, 0, 0
0, (0.214,0), 359.9999, 100.0, 359.9998575566753, 0, 0, 0, 0, 0, 0, 0
0, (0.214,0), 359.9998, 100.0, 359.99984234084803, 0, 0, 0, 0, 0, 0, 0
0, (0.214,0), 359.9998, 100.0, 359.99982363246573, 0, 0, 0, 0, 0, 0, 0
7.92, (0.382,0.015), 7.1998, 100.0, 6.179803598459711, 5.82, 5.82, 0.0138, 0.1142, 5.7084, 0.6908, 0.6908
3, (1.222,0.118), 2.2798, 100.0, 2.999791885539045, 4.74, 4.74, 0.0188, 0.2894, 14.4694, 0.9408, 0.9408
6.84, (2.773,0.201), 6.9598, 100.0, 6.6597835093446465, 5.52, 5.52, 0.0532, 0.464, 23.1981, 2.6595, 2.6595
3.84, (4.549,0.443), 3.9598, 100.0, 4.619768463874454, 5.64, 5.64, 0.0392, 0.4985, 24.9229, 1.9615, 1.9615
354.12, (6.546,0.408), 355.4398, 100.0, 355.8597590662899, -4.44, -4.44, -0.0476, 0.4977, 24.8866, -2.3788, -2.3788
344.4, (8.313,0.072), 345.7197, 100.0, 346.7997448786579, -13.86, -13.86, -0.1254, 0.484, 24.2015, -6.2679, -6.2679
334.2, (10.185,-0.624), 335.5197, 100.0, 336.1797230042929, -23.94, -23.94, -0.2124, 0.4526, 22.6318, -10.6208, -10.6208
341.52, (12.02,-1.414), 342.8397, 100.0, 342.4197064691419, -19.92, -19.92, -0.162, 0.473, 23.6521, -8.0979, -8.0979
341.64, (13.716,-2.015), 342.9597, 100.0, 341.69968922766697, -20.4, -20.4, -0.1679, 0.471, 23.5485, -8.3945, -8.3945
351.9, (15.657,-2.485), 353.2197, 100.0, 352.4396732350098, -9.96, -9.96, -0.0772, 0.494, 24.7003, -3.8591, -3.8591
354.96, (17.65,-2.641), 356.2797, 100.0, 356.6996583070922, -3.9, -3.9, -0.0403, 0.4984, 24.9188, -2.0137, -2.0137
345.3, (19.42,-2.955), 346.6196, 100.0, 347.3996481636005, -13.08, -13.08, -0.1203, 0.4853, 24.2658, -6.0142, -6.0142
338.46, (21.302,-3.625), 339.7796, 100.0, 339.119628645434, -23.34, -23.34, -0.1889, 0.4629, 23.1468, -9.446, -9.446
345.24, (23.215,-4.201), 346.5596, 100.0, 346.9196152524586, -13.26, -13.26, -0.1243, 0.4843, 24.2146, -6.2172, -6.2172
339.42, (25.099,-4.868), 340.7396, 100.0, 340.7396086368282, -21.6, -21.6, -0.1758, 0.4681, 23.4046, -8.7879, -8.7879
342.54, (26.825,-5.377), 343.8596, 100.0, 344.6995922204118, -15.54, -15.54, -0.143, 0.4791, 23.9556, -7.1506, -7.1506
339.3, (28.689,-6.099), 340.6196, 100.0, 339.8395763673387, -22.26, -22.26, -0.1831, 0.4653, 23.2636, -9.1544, -9.1544
349.38, (30.611,-6.64), 350.6996, 100.0, 350.3395582189883, -12.06, -12.06, -0.0952, 0.4908, 24.5423, -4.7617, -4.7617
359.04, (32.599,-6.838), 0.3595, 100.0, 0.35954241895752387, -2.16, -2.16, -0.0084, 0.4999, 24.9965, -0.4189, -0.4189
355.68, (34.398,-6.856), 356.7605, 100.0, 357.12045318164996, -2.88, -2.88, -0.0345, 0.4988, 24.9403, -1.7265, -1.7265
345.36, (36.367,-7.19), 346.4404, 100.0, 346.8004423063067, -13.26, -13.26, -0.1233, 0.4846, 24.2275, -6.1665, -6.1665
335.34, (38.06,-7.795), 336.4204, 100.0, 337.14042673722224, -22.86, -22.86, -0.2029, 0.457, 22.8493, -10.1445, -10.1445
325.92, (39.804,-8.769), 327.0004, 100.0, 327.36040826446606, -32.52, -32.52, -0.2776, 0.4159, 20.794, -13.8784, -13.8784
326.28, (41.248,-9.843), 327.3604, 100.0, 326.2803930193605, -35.94, -35.94, -0.2854, 0.4106, 20.5287, -14.2678, -14.2678
329.52, (42.979,-10.843), 330.6004, 100.0, 331.0203789315358, -28.92, -28.92, -0.2505, 0.4328, 21.6375, -12.5227, -12.5227
320.34, (44.449,-11.878), 321.4204, 100.0, 322.2003631006616, -37.8, -37.8, -0.3138, 0.3892, 19.4616, -15.6923, -15.6923
325.5, (46,-13.139), 326.5803, 100.0, 325.8003412304756, -36.36, -36.36, -0.2888, 0.4082, 20.4085, -14.4393, -14.4393
320.28, (47.632,-14.292), 321.3603, 100.0, 322.0803286559995, -38.34, -38.34, -0.3147, 0.3886, 19.4286, -15.733, -15.733
323.58, (49.156,-15.586), 324.6603, 100.0, 324.3003090502053, -37.92, -37.92, -0.2994, 0.4005, 20.0235, -14.9686, -14.9686
320.76, (50.623,-16.628), 321.8403, 100.0, 322.9202905523114, -37.02, -37.02, -0.3089, 0.3931, 19.6572, -15.4465, -15.4465
321.54, (52.124,-17.948), 322.6203, 100.0, 322.3202715040409, -40.2, -40.2, -0.313, 0.3899, 19.4944, -15.6515, -15.6515
330.48, (53.613,-18.958), 331.5603, 100.0, 330.4802639566093, -31.44, -31.44, -0.2545, 0.4304, 21.5186, -12.726, -12.726
339.6, (55.42,-19.809), 340.6802, 100.0, 339.9602466642655, -22.2, -22.2, -0.1802, 0.4664, 23.3207, -9.0081, -9.0081
346.38, (57.34,-20.367), 347.4602, 100.0, 347.4602298071011, -14.58, -14.58, -0.1177, 0.4859, 24.297, -5.887, -5.887
353.22, (59.118,-20.635), 354.3002, 100.0, 355.02021344064866, -5.28, -5.28, -0.0528, 0.4972, 24.8603, -2.6392, -2.6392
355.26, (61.098,-20.913), 356.3402, 100.0, 355.98019280112146, -6.18, -6.18, -0.0444, 0.498, 24.901, -2.2224, -2.2224
353.34, (62.894,-21.009), 354.5398, 100.0, 355.5598071584625, -4.86, -4.86, -0.0491, 0.4976, 24.879, -2.4569, -2.4569
3.42, (64.89,-21.079), 4.6198, 100.0, 3.8997896752728414, 1.62, 1.62, 0.0236, 0.4994, 24.9722, 1.1777, 1.1777
12.6, (66.871,-20.82), 13.7998, 100.0, 13.43976709845497, 11.04, 11.04, 0.106, 0.4886, 24.4317, 5.3002, 5.3002
14.4, (68.633,-20.455), 15.5998, 100.0, 14.579752296239674, 12.72, 12.72, 0.1157, 0.4864, 24.3214, 5.7852, 5.7852
24.48, (70.518,-19.794), 25.6797, 100.0, 25.37973415564114, 23.1, 23.1, 0.2048, 0.4561, 22.8066, 10.2401, 10.2401
20.82, (72.331,-18.953), 22.0197, 100.0, 22.37971947785968, 22.32, 22.32, 0.1806, 0.4662, 23.3112, 9.0325, 9.0325
16.56, (74.225,-18.311), 17.7597, 100.0, 17.759696213491505, 17.64, 17.64, 0.1425, 0.4793, 23.963, 7.1255, 7.1255
18.06, (75.965,-17.855), 19.2597, 100.0, 18.539685718603284, 16.2, 16.2, 0.149, 0.4773, 23.8638, 7.451, 7.451
17.1, (77.844,-17.172), 18.2997, 100.0, 18.659670074502372, 18.6, 18.6, 0.15, 0.477, 23.8482, 7.501, 7.501
7.14, (79.8,-16.764), 8.3397, 100.0, 8.339659182665892, 8.4, 8.4, 0.0621, 0.4961, 24.8061, 3.1074, 3.1074
1.74, (81.797,-16.682), 2.8196, 100.0, 2.8196407037917237, 0.72, 0.72, 0.0152, 0.4998, 24.9885, 0.7591, 0.7591
10.44, (83.584,-16.479), 11.5196, 100.0, 10.439630100274233, 9, 9, 0.0813, 0.4933, 24.6671, 4.0659, 4.0659
1.98, (85.566,-16.233), 3.0596, 100.0, 3.8396175078417305, 3.54, 3.54, 0.0241, 0.4994, 24.971, 1.2038, 1.2038
355.62, (87.563,-16.301), 356.7004, 100.0, 356.04037801106483, -5.28, -5.28, -0.0439, 0.4981, 24.9033, -2.1963, -2.1963
4.56, (89.561,-16.281), 5.6404, 100.0, 5.280360433603392, 4.14, 4.14, 0.0366, 0.4987, 24.9329, 1.831, 1.831
14.4, (91.529,-15.94), 15.4803, 100.0, 15.480343098841573, 12.96, 12.96, 0.1243, 0.4843, 24.2146, 6.2172, 6.2172
23.58, (93.234,-15.369), 24.6603, 100.0, 24.000328252212675, 21.36, 21.36, 0.1947, 0.4605, 23.0262, 9.7361, 9.7361
32.82, (95.006,-14.448), 33.9003, 100.0, 33.18031748189117, 31.02, 31.02, 0.2657, 0.4236, 21.178, 13.285, 13.285
25.2, (96.734,-13.445), 26.2803, 100.0, 26.64030372943585, 26.58, 26.58, 0.2157, 0.4511, 22.5533, 10.7864, 10.7864
30.48, (98.526,-12.561), 31.5603, 100.0, 31.56028719333654, 29.34, 29.34, 0.2536, 0.4309, 21.5452, 12.6809, 12.6809
25.86, (100.078,-11.651), 26.9403, 100.0, 27.900268274447974, 27.66, 27.66, 0.2256, 0.4462, 22.3107, 11.2797, 11.2797
30.72, (101.864,-10.754), 31.8003, 100.0, 31.800250101908507, 29.58, 29.58, 0.2554, 0.4298, 21.4919, 12.7711, 12.7711
39.84, (103.493,-9.598), 40.9202, 100.0, 40.920233474093735, 38.76, 38.76, 0.3203, 0.3839, 19.1959, 16.0161, 16.0161
36.72, (104.857,-8.424), 37.8002, 100.0, 38.64021493014243, 38.64, 38.64, 0.3048, 0.3964, 19.8179, 15.2398, 15.2398
28.8, (106.55,-7.364), 29.8802, 100.0, 29.160201549631218, 28.74, 28.74, 0.2354, 0.4411, 22.0573, 11.7676, 11.7676
39.12, (108.212,-6.256), 40.2002, 100.0, 39.42018263344571, 37.26, 37.26, 0.3102, 0.3922, 19.6086, 15.5082, 15.5082
47.34, (109.643,-4.863), 48.4202, 100.0, 49.14016336726175, 48.06, 48.06, 0.3719, 0.3342, 16.7088, 18.5961, 18.5961
37.2, (111.123,-3.521), 38.2801, 100.0, 38.640148016560346, 38.52, 38.52, 0.3048, 0.3964, 19.8179, 15.2398, 15.2398
27.42, (112.64,-2.557), 28.5001, 100.0, 29.280137549504502, 29.4, 29.4, 0.2363, 0.4407, 22.0326, 11.8138, 11.8138
17.52, (114.484,-1.789), 18.6001, 100.0, 18.960118875791686, 19.08, 19.08, 0.1535, 0.4759, 23.7925, 7.6756, 7.6756
7.62, (116.435,-1.359), 8.7001, 100.0, 9.060101387810972, 8.7, 8.7, 0.0694, 0.4952, 24.7579, 3.4707, 3.4707
16.68, (118.197,-1.002), 17.7601, 100.0, 16.68008734358992, 14.88, 14.88, 0.1345, 0.4816, 24.0791, 6.723, 6.723
26.22, (120.057,-0.274), 27.3001, 100.0, 26.940070351946016, 24.84, 24.84, 0.2181, 0.4499, 22.4966, 10.9043, 10.9043
36.18, (121.595,0.657), 37.2601, 100.0, 36.54006122547017, 34.32, 34.32, 0.2901, 0.4073, 20.363, 14.5034, 14.5034
28.26, (123.263,1.757), 29.34, 100.0, 30.12004230354693, 30.18, 30.18, 0.2427, 0.4371, 21.857, 12.1355, 12.1355
19.02, (125.089,2.568), 20.1, 100.0, 20.520030980409647, 20.52, 20.52, 0.1664, 0.4715, 23.5748, 8.3205, 8.3205
9.3, (127.026,3.053), 10.38, 100.0, 10.800015986198648, 10.56, 10.56, 0.0844, 0.4928, 24.6411, 4.2208, 4.2208
359.94, (129.019,3.197), 0.42, 100.0, 0.7799953099799831, 0.72, 0.72, 0.0026, 0.5, 24.9997, 0.1309, 0.1309
8.34, (130.814,3.296), 9.42, 100.0, 8.33998683138001, 6.18, 6.18, 0.0632, 0.496, 24.7996, 3.1593, 3.1593
7.02, (132.782,3.651), 8.1, 100.0, 9.239966026367426, 8.88, 8.88, 0.071, 0.4949, 24.7469, 3.5484, 3.5484
7.62, (134.774,3.823), 8.6999, 100.0, 8.279948743744374, 6.18, 6.18, 0.0627, 0.4961, 24.8029, 3.1333, 3.1333
359.4, (136.767,3.954), 0.1199, 100.0, 0.1199322541646975, 0.18, 0.18, -0.0052, 0.5, 24.9986, -0.2618, -0.2618
352.86, (138.564,3.867), 354.6599, 100.0, 355.73992956654143, -4.92, -4.92, -0.0528, 0.4972, 24.8603, -2.6392, -2.6392
343.32, (140.52,3.463), 345.1199, 100.0, 345.479915800224, -15.24, -15.24, -0.1405, 0.4799, 23.9927, -7.025, -7.025
333.66, (142.375,2.723), 335.4599, 100.0, 335.4598964919409, -25.26, -25.26, -0.2218, 0.4481, 22.4044, -11.0924, -11.0924
323.34, (143.91,1.786), 325.1399, 100.0, 326.21988027962124, -34.74, -34.74, -0.2909, 0.4067, 20.3326, -14.546, -14.546
321.72, (145.443,0.503), 323.5199, 100.0, 322.73986316796567, -40.2, -40.2, -0.3151, 0.3882, 19.4122, -15.7533, -15.7533
331.74, (147.108,-0.6), 333.5398, 100.0, 332.87984525154224, -30, -30, -0.2418, 0.4376, 21.8824, -12.0897, -12.0897
341.4, (148.942,-1.392), 343.1998, 100.0, 342.83982668325854, -19.98, -19.98, -0.1625, 0.4729, 23.6436, -8.1227, -8.1227
337.2, (150.648,-1.962), 338.9998, 100.0, 339.77980751186993, -20.94, -20.94, -0.1875, 0.4635, 23.1763, -9.3733, -9.3733
327.9, (152.426,-2.873), 329.6998, 100.0, 330.4197938053675, -30.6, -30.6, -0.2604, 0.4269, 21.3433, -13.0178, -13.0178
317.94, (154.017,-4.08), 319.7398, 100.0, 320.09978084324484, -40.68, -40.68, -0.3326, 0.3733, 18.666, -16.6308, -16.6308
308.34, (155.373,-5.547), 310.1398, 100.0, 310.1397620834041, -50.94, -50.94, -0.3922, 0.3102, 15.5082, -19.6086, -19.6086
315.48, (156.547,-6.909), 317.2797, 100.0, 316.55974458465363, -46.26, -46.26, -0.355, 0.3521, 17.6035, -17.7516, -17.7516
308.58, (157.919,-8.361), 310.3797, 100.0, 310.739734123138, -49.98, -49.98, -0.3889, 0.3143, 15.7127, -19.4451, -19.4451
314.4, (159.192,-9.901), 315.7197, 100.0, 315.3597158958394, -47.22, -47.22, -0.3594, 0.3476, 17.379, -17.9714, -17.9714
309.42, (160.574,-11.345), 310.7397, 100.0, 311.0396931810802, -49.2, -49.2, -0.3846, 0.3195, 15.9759, -19.2294, -19.2294
311.82, (161.814,-12.913), 313.1397, 100.0, 312.77967646857445, -49.32, -49.32, -0.3747, 0.331, 16.5524, -18.7355, -18.7355
312.3, (163.059,-14.212), 313.6197, 100.0, 313.25965736326776, -47.76, -47.76, -0.3719, 0.3342, 16.7088, -18.5961, -18.5961
302.4, (164.276,-15.797), 303.7196, 100.0, 304.0796422061075, -56.16, -56.16, -0.4205, 0.2706, 13.528, -21.0236, -21.0236
312.18, (165.485,-17.386), 313.4996, 100.0, 313.07962418726527, -48.96, -48.96, -0.373, 0.333, 16.6503, -18.6485, -18.6485
322.2, (166.795,-18.618), 323.5196, 100.0, 322.19961058588973, -40.2, -40.2, -0.3155, 0.3879, 19.3957, -15.7737, -15.7737
331.74, (168.458,-19.724), 333.0596, 100.0, 332.3395899892406, -30.06, -30.06, -0.2423, 0.4374, 21.8697, -12.1126, -12.1126
341.7, (170.295,-20.509), 343.0196, 100.0, 343.0195703973183, -19.32, -19.32, -0.157, 0.4747, 23.7356, -7.8498, -7.8498
350.88, (172.045,-20.919), 352.1996, 100.0, 352.5595525859277, -10.14, -10.14, -0.0761, 0.4942, 24.7084, -3.8074, -3.8074
340.98, (173.979,-21.416), 342.2995, 100.0, 342.29953545518947, -17.94, -17.94, -0.1629, 0.4727, 23.6351, -8.1475, -8.1475
338.7, (175.872,-22.061), 340.0195, 100.0, 339.65951884077595, -21.72, -21.72, -0.1845, 0.4647, 23.2348, -9.2275, -9.2275
347.76, (177.597,-22.567), 349.0795, 100.0, 349.07949999768596, -13.44, -13.44, -0.106, 0.4886, 24.4317, -5.3002, -5.3002
356.28, (179.571,-22.871), 357.5995, 100.0, 357.2394805607802, -5.22, -5.22, -0.0356, 0.4987, 24.9366, -1.7787, -1.7787
348.78, (181.556,-23.097), 350.0995, 100.0, 350.0994646043734, -10.08, -10.08, -0.0973, 0.4904, 24.5222, -4.8644, -4.8644
358.92, (183.543,-23.298), 0.2395, 100.0, 0.2394513234727675, -2.22, -2.22, -0.0094, 0.4999, 24.9956, -0.4712, -0.4712
357.3, (185.337,-23.442), 358.8605, 100.0, 357.84053792325994, -4.92, -4.92, -0.0324, 0.4989, 24.9473, -1.622, -1.622
7.08, (187.333,-23.371), 8.6405, 100.0, 8.280524093835892, 5.7, 5.7, 0.0585, 0.4966, 24.8282, 2.9254, 2.9254
17.04, (189.286,-22.952), 18.6005, 100.0, 18.240507420974506, 15.6, 15.6, 0.1435, 0.479, 23.9481, 7.1757, 7.1757
16.44, (190.981,-22.349), 18.0005, 100.0, 19.380488357719116, 18.84, 18.84, 0.153, 0.476, 23.8006, 7.6507, 7.6507
6.36, (192.936,-21.937), 7.9205, 100.0, 8.70047239362233, 8.22, 8.22, 0.0621, 0.4961, 24.8061, 3.1074, 3.1074
356.88, (194.932,-21.875), 358.9195, 100.0, 359.5795390705695, -1.26, -1.26, -0.0215, 0.4995, 24.977, -1.073, -1.073
346.86, (196.91,-22.16), 348.8995, 100.0, 349.3195249172548, -11.76, -11.76, -0.1101, 0.4877, 24.3864, -5.5047, -5.5047
342.48, (198.816,-22.762), 344.5195, 100.0, 344.51950271582365, -18.6, -18.6, -0.1505, 0.4768, 23.8403, -7.526, -7.526
352.62, (200.572,-23.147), 354.6595, 100.0, 353.81948244312144, -9.24, -9.24, -0.0715, 0.4949, 24.7432, -3.5744, -3.5744
2.16, (202.567,-23.246), 4.1995, 100.0, 3.8994675525521965, 0.72, 0.72, 0.0162, 0.4997, 24.9868, 0.8114, 0.8114
12, (204.548,-22.99), 14.0394, 100.0, 14.039447937709859, 10.92, 10.92, 0.104, 0.4891, 24.4537, 5.1978, 5.1978
21.78, (206.454,-22.393), 23.8194, 100.0, 23.819429343913168, 21.06, 21.06, 0.1855, 0.4643, 23.2154, 9.2761, 9.2761
32.1, (208.055,-21.575), 34.1394, 100.0, 33.35941865440266, 30.24, 30.24, 0.2599, 0.4271, 21.3569, 12.9954, 12.9954
41.76, (209.66,-20.386), 43.7994, 100.0, 43.139401538962275, 39.96, 39.96, 0.3287, 0.3768, 18.8391, 16.4344, 16.4344
51.84, (211.026,-18.928), 53.8794, 100.0, 53.51938272660907, 50.34, 50.34, 0.3912, 0.3114, 15.5697, 19.5598, 19.5598
43.38, (212.362,-17.443), 45.4194, 100.0, 45.41935767550942, 44.46, 44.46, 0.3434, 0.3634, 18.1704, 17.1708, 17.1708
33.66, (213.772,-16.327), 35.6993, 100.0, 36.41934169941145, 35.46, 35.46, 0.2823, 0.4127, 20.6328, 14.117, 14.117
37.2, (215.442,-15.228), 39.2393, 100.0, 38.81932335643527, 36, 36, 0.2994, 0.4005, 20.0235, 14.9686, 14.9686
46.62, (216.927,-13.893), 48.6593, 100.0, 48.23930510345652, 45.12, 45.12, 0.3609, 0.3461, 17.3036, 18.044, 18.044
44.52, (218.125,-12.55), 46.5593, 100.0, 47.63928995149089, 46.62, 46.62, 0.3572, 0.3498, 17.4916, 17.8618, 17.8618
34.74, (219.657,-11.267), 36.7793, 100.0, 37.559275231197425, 36.6, 36.6, 0.2905, 0.407, 20.3478, 14.5247, 14.5247
25.32, (221.391,-10.277), 27.3593, 100.0, 27.35925972408925, 26.04, 26.04, 0.2138, 0.452, 22.5983, 10.6918, 10.6918
31.08, (223.002,-9.476), 33.1192, 100.0, 32.39924998812708, 29.4, 29.4, 0.2527, 0.4314, 21.5717, 12.6358, 12.6358
33.84, (224.698,-8.418), 35.8792, 100.0, 35.45923033080929, 32.76, 32.76, 0.2754, 0.4173, 20.8664, 13.7693, 13.7693
44.1, (226.1,-7.292), 46.1392, 100.0, 44.99921647369537, 41.88, 41.88, 0.3407, 0.3659, 18.2957, 17.0372, 17.0372
53.16, (227.429,-5.8), 55.1992, 100.0, 54.539202946595275, 51.48, 51.48, 0.3967, 0.3044, 15.219, 19.8338, 19.8338
56.34, (228.519,-4.125), 58.3792, 100.0, 59.09919144921631, 57.84, 57.84, 0.4196, 0.2719, 13.594, 20.981, 20.981
46.32, (229.768,-2.566), 48.3592, 100.0, 48.779174240758344, 47.82, 47.82, 0.3641, 0.3427, 17.1328, 18.2063, 18.2063
36.9, (231.272,-1.252), 38.9392, 100.0, 38.93915449908349, 37.68, 37.68, 0.3002, 0.3998, 19.9921, 15.0105, 15.0105
27.24, (232.805,-0.312), 29.2791, 100.0, 29.63914168423686, 28.26, 28.26, 0.2316, 0.4431, 22.1551, 11.5824, 11.5824
16.8, (234.656,0.437), 18.8391, 100.0, 19.259119299405345, 18.36, 18.36, 0.148, 0.4776, 23.8794, 7.401, 7.401
7.2, (236.612,0.843), 9.2391, 100.0, 9.239095127653014, 8.28, 8.28, 0.0627, 0.4961, 24.8029, 3.1333, 3.1333
357.6, (238.409,0.912), 359.8809, 100.0, 0.05907745842748024, -0.6, -0.6, -0.0152, 0.4998, 24.9885, -0.7591, -0.7591
347.64, (240.39,0.66), 349.9209, 100.0, 350.34089737689106, -10.86, -10.86, -0.1034, 0.4892, 24.4591, -5.1722, -5.1722
349.26, (242.358,0.307), 351.5409, 100.0, 351.540876868817, -9.6, -9.6, -0.0932, 0.4912, 24.5621, -4.6588, -4.6588
344.88, (244.288,-0.214), 347.1609, 100.0, 347.1608585613784, -15.9, -15.9, -0.1304, 0.4827, 24.1345, -6.521, -6.521
351.42, (246.059,-0.528), 353.7008, 100.0, 354.3608389522993, -6.9, -6.9, -0.0689, 0.4952, 24.7615, -3.4448, -3.4448
342, (248.001,-0.996), 344.2808, 100.0, 344.6408232740582, -16.92, -16.92, -0.1515, 0.4765, 23.8245, -7.5759, -7.5759
332.28, (249.836,-1.785), 334.5608, 100.0, 334.56080872599597, -26.94, -26.94, -0.2326, 0.4426, 22.1308, -11.6288, -11.6288
322.32, (251.347,-2.76), 324.6008, 100.0, 325.32079295659383, -35.76, -35.76, -0.3006, 0.3995, 19.9764, -15.0314, -15.0314
331.68, (253.01,-3.866), 333.9608, 100.0, 333.240777743799, -30.24, -30.24, -0.2427, 0.4371, 21.857, -12.1355, -12.1355
322.62, (254.703,-4.926), 324.9008, 100.0, 325.5607639070232, -35.58, -35.58, -0.299, 0.4008, 20.0392, -14.9476, -14.9476
312.6, (256.19,-6.26), 314.8808, 100.0, 315.60075179720224, -45.54, -45.54, -0.3638, 0.343, 17.1518, -18.1883, -18.1883
302.82, (257.422,-7.832), 305.1007, 100.0, 305.52073794433363, -55.62, -55.62, -0.4182, 0.2741, 13.7037, -20.9095, -20.9095
293.34, (258.277,-9.414), 295.6207, 100.0, 296.3407216905802, -64.8, -64.8, -0.4566, 0.2038, 10.1923, -22.828, -22.828
283.56, (258.916,-11.306), 285.8407, 100.0, 286.2007062463394, -74.88, -74.88, -0.4853, 0.1203, 6.0142, -24.2658, -24.2658
273.3, (259.21,-13.282), 275.5807, 100.0, 276.30069103040074, -85.26, -85.26, -0.4988, 0.0351, 1.7526, -24.9385, -24.9385
263.52, (259.153,-15.279), 265.8007, 100.0, 266.1606766179305, -95.1, -95.1, -0.4972, -0.0533, -2.6653, -24.8575, -24.8575
253.56, (258.798,-17.041), 255.8407, 100.0, 256.62066113473736, -104.46, -104.46, -0.4814, -0.135, -6.7482, -24.072, -24.072
252.84, (258.142,-18.93), 255.1206, 100.0, 254.40064989621456, -109.08, -109.08, -0.4759, -0.1535, -7.6756, -23.7925, -23.7925
262.32, (257.723,-20.883), 264.6006, 100.0, 264.60063564547625, -98.82, -98.82, -0.4955, -0.0668, -3.341, -24.7757, -24.7757
268.98, (257.639,-22.679), 271.2606, 100.0, 272.3406193847093, -89.58, -89.58, -0.5, 0.0005, 0.0262, -25, -25
276.24, (257.687,-24.677), 278.5206, 100.0, 277.8006050879333, -85.2, -85.2, -0.4977, 0.0481, 2.4048, -24.8841, -24.8841
269.46, (257.838,-26.669), 271.7406, 100.0, 272.4605847683619, -89.04, -89.04, -0.5, 0.0016, 0.0785, -24.9999, -24.9999
259.56, (257.653,-28.658), 261.8406, 100.0, 262.44056501683093, -98.7, -98.7, -0.4926, -0.0854, -4.2724, -24.6322, -24.6322
249.84, (257.19,-30.395), 252.1205, 100.0, 253.26054805527568, -107.88, -107.88, -0.4727, -0.1629, -8.1475, -23.6351, -23.6351
240.24, (256.351,-32.208), 242.5205, 100.0, 242.82052952331114, -118.44, -118.44, -0.4353, -0.2459, -12.2954, -21.7675, -21.7675
230.4, (255.333,-33.69), 232.6805, 100.0, 233.46051658538812, -127.86, -127.86, -0.3896, -0.3134, -15.6719, -19.478, -19.478
224.94, (253.945,-35.127), 227.2205, 100.0, 226.56049652920174, -137.04, -137.04, -0.3491, -0.358, -17.8984, -17.4541, -17.4541
230.7, (252.646,-36.646), 232.9805, 100.0, 233.70047681981413, -127.56, -127.56, -0.3909, -0.3118, -15.5902, -19.5435, -19.5435
227.88, (251.347,-38.166), 230.1605, 100.0, 230.16046510988772, -131.1, -131.1, -0.3709, -0.3353, -16.7671, -18.5435, -18.5435
218.82, (250.034,-39.395), 221.1004, 100.0, 221.88044181477557, -139.32, -139.32, -0.3187, -0.3853, -19.2628, -15.9356, -15.9356
213.66, (248.389,-40.53), 215.9404, 100.0, 215.1604254784642, -148.2, -148.2, -0.2714, -0.4199, -20.9952, -13.572, -13.572
220.98, (246.825,-41.773), 223.2604, 100.0, 223.62041201210016, -138, -138, -0.3303, -0.3754, -18.7701, -16.5131, -16.5131
211.44, (245.373,-42.834), 213.7204, 100.0, 214.0803968775277, -147.06, -147.06, -0.2635, -0.4249, -21.2473, -13.1739, -13.1739
201.36, (243.584,-43.721), 203.6404, 100.0, 204.06037543073364, -157.44, -157.44, -0.1855, -0.4643, -23.2154, -9.2761, -9.2761
191.4, (241.668,-44.284), 193.6804, 100.0, 194.0403544643785, -167.4, -167.4, -0.1019, -0.4895, -24.4752, -5.0953, -5.0953
181.68, (239.882,-44.495), 183.9603, 100.0, 185.04033977041826, -176.46, -176.46, -0.0241, -0.4994, -24.971, -1.2038, -1.2038
171.48, (237.888,-44.386), 173.7603, 100.0, 174.48032508901673, 173.34, 173.34, 0.0679, -0.4954, -24.7687, 3.3929, 3.3929
161.94, (235.944,-43.926), 164.2203, 100.0, 164.22030414559117, 163.02, 163.02, 0.155, -0.4754, -23.7683, 7.7503, 7.7503
161.22, (234.264,-43.28), 163.5003, 100.0, 162.78028869832985, 159.42, 159.42, 0.1669, -0.4713, -23.566, 8.3452, 8.3452
162.3, (232.34,-42.739), 164.5803, 100.0, 165.30027185093522, 164.16, 164.16, 0.146, -0.4782, -23.9102, 7.3009, 7.3009
152.46, (230.494,-41.975), 154.7403, 100.0, 155.5202555707754, 154.02, 154.02, 0.2251, -0.4465, -22.3225, 11.2564, 11.2564
142.86, (228.808,-40.904), 145.1402, 100.0, 145.50023727171535, 143.94, 143.94, 0.2994, -0.4005, -20.0235, 14.9686, 14.9686
143.34, (227.424,-39.754), 145.6202, 100.0, 144.48021714870166, 141.12, 141.12, 0.3065, -0.3951, -19.7539, 15.3227, 15.3227
153.48, (225.73,-38.695), 155.7602, 100.0, 155.04020200579478, 151.62, 151.62, 0.2289, -0.4445, -22.2274, 11.443, 11.443
152.94, (223.91,-37.868), 155.2202, 100.0, 155.5801840991342, 154.38, 154.38, 0.2247, -0.4467, -22.3343, 11.233, 11.233
144.78, (222.203,-36.829), 147.0602, 100.0, 147.42017175707284, 145.92, 145.92, 0.2858, -0.4103, -20.5138, 14.2893, 14.2893
134.88, (220.83,-35.668), 137.1602, 100.0, 137.94016135054304, 136.44, 136.44, 0.3495, -0.3576, -17.8801, 17.4729, 17.4729
124.8, (219.543,-34.141), 127.0801, 100.0, 127.86013986224032, 126.42, 126.42, 0.4067, -0.2909, -14.546, 20.3326, 20.3326
121.14, (218.517,-32.425), 123.4201, 100.0, 123.00012392056462, 119.94, 119.94, 0.4298, -0.2554, -12.7711, 21.4919, 21.4919
123.12, (217.493,-30.946), 125.4001, 100.0, 126.12011482457143, 124.98, 124.98, 0.4153, -0.2784, -13.9219, 20.7649, 20.7649
113.64, (216.538,-29.191), 115.9201, 100.0, 116.70009773094081, 115.5, 115.5, 0.4553, -0.2067, -10.3356, 22.7635, 22.7635
103.5, (215.9,-27.298), 105.7801, 100.0, 106.14007869341339, 105, 105, 0.4854, -0.1198, -5.9888, 24.2721, 24.2721
93.54, (215.609,-25.322), 95.8201, 100.0, 96.24005809910742, 94.74, 94.74, 0.4988, -0.0345, -1.7265, 24.9403, 24.9403
89.1, (215.631,-23.523), 91.38, 100.0, 90.54004833993221, 87.3, 87.3, 0.4998, 0.0152, 0.7591, 24.9885, 24.9885
99.24, (215.498,-21.531), 101.52, 100.0, 100.68002964660668, 97.32, 97.32, 0.4946, -0.073, -3.6521, 24.7318, 24.7318
108.9, (215.011,-19.593), 111.18, 100.0, 110.76000918687585, 107.34, 107.34, 0.4742, -0.1585, -7.9243, 23.7109, 23.7109
118.2, (214.191,-17.772), 120.48, 100.0, 120.47998643091184, 117.06, 117.06, 0.4407, -0.2363, -11.8138, 22.0326, 22.0326
127.2, (213.209,-16.265), 129.48, 100.0, 128.75997474939552, 126.48, 126.48, 0.402, -0.2973, -14.8636, 20.1016, 20.1016
136.14, (211.869,-14.785), 138.42, 100.0, 138.77995497910757, 135.84, 135.84, 0.3442, -0.3627, -18.1344, 17.2089, 17.2089
146.28, (210.307,-13.539), 148.5599, 100.0, 148.19993860988728, 145.2, 145.2, 0.2802, -0.4141, -20.7064, 14.0087, 14.0087
155.4, (208.568,-12.557), 157.6799, 100.0, 157.31991598409087, 153.96, 153.96, 0.211, -0.4533, -22.6651, 10.5496, 10.5496
164.34, (206.694,-11.865), 166.6199, 100.0, 166.61990159060502, 163.26, 163.26, 0.135, -0.4814, -24.072, 6.7482, 6.7482
157.62, (204.981,-11.317), 159.8999, 100.0, 160.61988134489116, 159.12, 159.12, 0.1845, -0.4647, -23.2348, 9.2275, 9.2275
157.44, (203.17,-10.471), 159.7199, 100.0, 158.93986583362022, 156, 156, 0.1981, -0.4591, -22.9543, 9.9047, 9.9047
166.32, (201.269,-9.857), 168.5998, 100.0, 168.59984832918136, 165.24, 165.24, 0.1182, -0.4858, -24.2908, 5.9125, 5.9125
168.18, (199.496,-9.544), 170.4598, 100.0, 171.5398301913684, 170.04, 170.04, 0.0932, -0.4912, -24.5621, 4.6588, 4.6588
171.6, (197.544,-9.115), 173.8798, 100.0, 173.21981489806382, 169.92, 169.92, 0.0787, -0.4938, -24.6881, 3.9367, 3.9367
181.8, (195.55,-8.995), 184.0798, 100.0, 183.2998004789454, -179.76, -179.76, -0.0089, -0.4999, -24.996, -0.445, -0.445
191.64, (193.565,-9.22), 193.9198, 100.0, 193.19978438450062, -170.16, -170.16, -0.0947, -0.4909, -24.5473, -4.736, -4.736
190.38, (191.621,-9.683), 192.6598, 100.0, 192.95976998019154, -168.18, -168.18, -0.0927, -0.4913, -24.5669, -4.6331, -4.6331
180.12, (189.831,-9.855), 182.3998, 100.0, 183.47975296654397, -177.72, -177.72, -0.0105, -0.4999, -24.9945, -0.5236, -0.5236
181.14, (187.833,-9.79), 183.4197, 100.0, 182.33973432772615, 179.28, 179.28, -0.0005, -0.5, -25, -0.0262, -0.0262
191.16, (185.845,-9.99), 193.4397, 100.0, 192.71971714409545, -170.64, -170.64, -0.0906, -0.4917, -24.5861, -4.5301, -4.5301
190.8, (183.9,-10.451), 193.0797, 100.0, 193.4396960539603, -167.7, -167.7, -0.0968, -0.4905, -24.5273, -4.8387, -4.8387
180.72, (181.912,-10.64), 182.9997, 100.0, 182.9996834968915, -178.14, -178.14, -0.0063, -0.5, -24.998, -0.3142, -0.3142
180.42, (180.113,-10.57), 182.6997, 100.0, 182.03966935557872, 178.62, 178.62, 0.0021, -0.5, -24.9998, 0.1047, 0.1047
190.68, (178.125,-10.759), 192.9597, 100.0, 192.23965404149183, -171.12, -171.12, -0.0865, -0.4925, -24.6232, -4.324, -4.324
200.58, (176.199,-11.288), 202.8596, 100.0, 202.07963630069426, -161.28, -161.28, -0.1694, -0.4704, -23.522, -8.4684, -8.4684
202.38, (174.369,-12.093), 204.6596, 100.0, 205.0796266204643, -156.48, -156.48, -0.1938, -0.4609, -23.0466, -9.6879, -9.6879
192.24, (172.653,-12.631), 194.5196, 100.0, 195.59961031389068, -165.9, -165.9, -0.1152, -0.4865, -24.3275, -5.7597, -5.7597
182.64, (170.673,-12.89), 184.9196, 100.0, 185.33959687317937, -176.16, -176.16, -0.0267, -0.4993, -24.9644, -1.3345, -1.3345
178.02, (168.675,-12.83), 180.2996, 100.0, 179.93958265006418, 176.52, 176.52, 0.0204, -0.4996, -24.9792, 1.0207, 1.0207
188.34, (166.681,-12.951), 190.6196, 100.0, 190.25956589299778, -172.74, -172.74, -0.0694, -0.4952, -24.7579, -3.4707, -3.4707
182.76, (164.897,-13.183), 185.0396, 100.0, 186.11955138268942, -175.44, -175.44, -0.0335, -0.4989, -24.9439, -1.6743, -1.6743
184.44, (162.901,-13.292), 186.7195, 100.0, 187.49953524616285, -174, -174, -0.0455, -0.4979, -24.8963, -2.2745, -2.2745
182.76, (160.903,-13.336), 185.0395, 100.0, 184.25951719401473, -178.74, -178.74, -0.0173, -0.4997, -24.9851, -0.8638, -0.8638
185.1, (158.915,-13.553), 187.3795, 100.0, 187.7394970994218, -173.4, -173.4, -0.0476, -0.4977, -24.8866, -2.3788, -2.3788
176.04, (156.918,-13.549), 178.3195, 100.0, 177.89948026852718, 176.4, 176.4, 0.0382, -0.4985, -24.927, 1.9093, 1.9093
186.12, (155.12,-13.578), 188.3995, 100.0, 187.37946169545089, -175.92, -175.92, -0.0444, -0.498, -24.901, -2.2224, -2.2224
195.42, (153.159,-13.957), 197.6994, 100.0, 197.6994418318334, -165.3, -165.3, -0.1329, -0.482, -24.1001, -6.6473, -6.6473
185.1, (151.194,-14.312), 187.3794, 100.0, 187.7394164204254, -173.4, -173.4, -0.0476, -0.4977, -24.8866, -2.3788, -2.3788
175.92, (149.396,-14.336), 178.1994, 100.0, 178.97940228004182, 177.48, 177.48, 0.0288, -0.4992, -24.9585, 1.4391, 1.4391
165.78, (147.424,-14.018), 168.0594, 100.0, 168.3593812520841, 167.22, 167.22, 0.1203, -0.4853, -24.2658, 6.0142, 6.0142
155.94, (145.536,-13.364), 158.2194, 100.0, 158.63936593659938, 157.38, 157.38, 0.2005, -0.458, -22.9021, 10.0247, 10.0247
146.28, (143.79,-12.394), 148.5593, 100.0, 148.9193469616986, 147.36, 147.36, 0.2749, -0.4176, -20.8808, 13.7474, 13.7474
136.74, (142.381,-11.278), 139.0193, 100.0, 140.09933233381227, 138.9, 138.9, 0.3357, -0.3705, -18.526, 16.7865, 16.7865
133.38, (140.972,-9.858), 135.6593, 100.0, 136.31931242175364, 135, 135, 0.3594, -0.3476, -17.379, 17.9714, 17.9714
125.52, (139.727,-8.296), 127.7993, 100.0, 127.43929095153466, 125.58, 125.58, 0.4088, -0.2879, -14.3965, 20.4387, 20.4387
134.1, (138.422,-6.783), 136.3793, 100.0, 136.73927346131694, 134.52, 134.52, 0.3569, -0.3502, -17.5103, 17.8435, 17.8435
123.9, (137.172,-5.225), 126.1793, 100.0, 126.47925349887504, 125.34, 125.34, 0.4135, -0.281, -14.0521, 20.677, 20.677
116.58, (136.302,-3.651), 118.8592, 100.0, 118.07923590917204, 115.74, 115.74, 0.4502, -0.2176, -10.8808, 22.508, 22.508
126.84, (135.251,-1.953), 129.1192, 100.0, 128.759220349727, 125.7, 125.7, 0.402, -0.2973, -14.8636, 20.1016, 20.1016
136.74, (134.053,-0.613), 139.0192, 100.0, 138.17920353290012, 134.82, 134.82, 0.348, -0.3591, -17.9532, 17.3978, 17.3978
134.64, (132.56,0.718), 136.9192, 100.0, 137.63918798308796, 136.74, 136.74, 0.3513, -0.3558, -17.7884, 17.5662, 17.5662
132, (131.246,2.224), 134.2792, 100.0, 133.91916951711988, 130.38, 130.38, 0.3737, -0.3322, -16.6112, 18.6834, 18.6834
136.98, (129.807,3.611), 139.2591, 100.0, 138.89914787780575, 136.92, 136.92, 0.3434, -0.3634, -18.1704, 17.1708, 17.1708
146.16, (128.227,4.833), 148.4391, 100.0, 148.79913500774217, 145.8, 145.8, 0.2758, -0.417, -20.852, 13.7911, 13.7911
143.94, (126.796,5.925), 146.2191, 100.0, 145.4391225055031, 142.14, 142.14, 0.2998, -0.4002, -20.0078, 14.9896, 14.9896
154.14, (125.088,6.96), 156.4191, 100.0, 155.63910188378622, 152.34, 152.34, 0.2242, -0.4469, -22.346, 11.2096, 11.2096
164.1, (123.221,7.668), 166.3791, 100.0, 166.37908307793052, 162.96, 162.96, 0.137, -0.4809, -24.0435, 6.849, 6.849
173.82, (121.456,8.009), 176.0991, 100.0, 175.43906587593727, 172.14, 172.14, 0.0595, -0.4964, -24.8221, 2.9774, 2.9774
178.32, (119.458,8.076), 180.599, 100.0, 181.31904986135547, -179.94, -179.94, 0.0084, -0.4999, -24.9965, 0.4189, 0.4189
169.38, (117.473,8.298), 171.659, 100.0, 172.37903009618105, 171.12, 171.12, 0.086, -0.4926, -24.6277, 4.2982, 4.2982
160.08, (115.547,8.83), 162.359, 100.0, 162.77901485858897, 161.22, 161.22, 0.1669, -0.4713, -23.566, 8.3452, 8.3452
150.12, (113.739,9.678), 152.399, 100.0, 152.3990005118644, 151.2, 151.2, 0.2491, -0.4335, -21.6768, 12.4546, 12.4546
139.92, (112.264,10.707), 142.199, 100.0, 143.21898419352, 142.08, 142.08, 0.3151, -0.3882, -19.4122, 15.7533, 15.7533
129.96, (110.844,12.111), 132.239, 100.0, 133.07896401452757, 131.82, 131.82, 0.3785, -0.3267, -16.3355, 18.9249, 18.9249
119.76, (109.699,13.748), 122.039, 100.0, 122.45895196929784, 121.32, 121.32, 0.4322, -0.2514, -12.568, 21.6113, 21.6113
109.8, (108.866,15.563), 112.0789, 100.0, 112.3789366525858, 111.24, 111.24, 0.4695, -0.1718, -8.5915, 23.4774, 23.4774
99.48, (108.409,17.302), 101.7589, 100.0, 102.53892133580241, 101.4, 101.4, 0.492, -0.0891, -4.4529, 24.6002, 24.6002
89.64, (108.244,19.293), 91.9189, 100.0, 92.2789114894336, 91.02, 91.02, 0.5, 0, 0, 25, 25
79.32, (108.434,21.281), 81.5989, 100.0, 82.31889900330481, 80.88, 80.88, 0.4925, 0.0865, 4.324, 24.6232, 24.6232
72, (108.968,23.206), 74.2789, 100.0, 73.91888176251827, 70.92, 70.92, 0.4745, 0.1575, 7.8747, 23.7274, 23.7274
80.4, (109.404,25.156), 82.6789, 100.0, 82.67886672827518, 81.12, 81.12, 0.493, 0.0834, 4.1692, 24.6499, 24.6499
87.72, (109.629,26.94), 89.9989, 100.0, 89.33885551529443, 85.92, 85.92, 0.4993, 0.0256, 1.2823, 24.9671, 24.9671
80.52, (109.778,28.932), 82.7988, 100.0, 83.51883850042834, 82.38, 82.38, 0.4942, 0.0761, 3.8074, 24.7084, 24.7084
90.3, (109.937,30.923), 92.5788, 100.0, 92.57882304834597, 89.16, 89.16, 0.5, -0.0026, -0.1309, 24.9997, 24.9997
81.12, (110.059,32.717), 83.3988, 100.0, 84.05881131425672, 82.86, 82.86, 0.4949, 0.0715, 3.5744, 24.7432, 24.7432
89.4, (110.258,34.704), 91.6788, 100.0, 90.8988007801987, 87.9, 87.9, 0.4999, 0.012, 0.6021, 24.9927, 24.9927
98.7, (110.126,36.698), 100.9788, 100.0, 100.55878353274396, 97.26, 97.26, 0.4948, -0.072, -3.6003, 24.7394, 24.7394
107.58, (109.732,38.452), 109.8588, 100.0, 108.89876937520334, 105.6, 105.6, 0.4791, -0.143, -7.1506, 23.9556, 23.9556
105.84, (109.124,40.357), 108.1187, 100.0, 107.09874700559945, 105.18, 105.18, 0.4834, -0.1279, -6.3946, 24.1684, 24.1684
113.82, (108.428,42.229), 116.0987, 100.0, 116.4587278017321, 114.18, 114.18, 0.4561, -0.2048, -10.2401, 22.8066, 22.8066
112.32, (107.723,44.1), 114.5987, 100.0, 114.59870957504401, 111.24, 111.24, 0.4625, -0.1899, -9.4945, 23.1269, 23.1269
114.72, (106.931,45.716), 116.9987, 100.0, 117.71869374613395, 116.52, 116.52, 0.4515, -0.2148, -10.7391, 22.5759, 22.5759
114.12, (106.18,47.569), 116.3987, 100.0, 115.97867653275144, 112.56, 112.56, 0.4578, -0.201, -10.0487, 22.8916, 22.8916
123.96, (105.193,49.305), 126.2387, 100.0, 126.59866152595153, 123.18, 123.18, 0.413, -0.2819, -14.0954, 20.6475, 20.6475
114.18, (104.234,51.057), 116.4586, 100.0, 116.45864452724688, 114.9, 114.9, 0.4561, -0.2048, -10.2401, 22.8066, 22.8066
124.32, (103.356,52.626), 126.5986, 100.0, 125.69862610991531, 122.34, 122.34, 0.4173, -0.2754, -13.7693, 20.8664, 20.8664
133.98, (102.104,54.182), 136.2586, 100.0, 135.89860975350624, 132.42, 132.42, 0.362, -0.3449, -17.2468, 18.0983, 18.0983
143.76, (100.597,55.493), 146.0386, 100.0, 145.67859452260134, 142.32, 142.32, 0.2981, -0.4014, -20.0704, 14.9056, 14.9056
153.12, (98.886,56.523), 155.3986, 100.0, 155.39857849211944, 152.28, 152.28, 0.2261, -0.446, -22.2989, 11.3031, 11.3031
160.74, (97.216,57.19), 163.0186, 100.0, 164.15856730386975, 161.52, 161.52, 0.1555, -0.4752, -23.7602, 7.7752, 7.7752
156.42, (95.38,57.981), 158.6985, 100.0, 157.97854849644796, 154.62, 154.62, 0.2058, -0.4557, -22.7851, 10.2879, 10.2879
165.6, (93.491,58.629), 167.8785, 100.0, 167.09853269563328, 163.8, 163.8, 0.1309, -0.4826, -24.1277, 6.5463, 6.5463
174.36, (91.521,58.961), 176.6385, 100.0, 176.33851274820157, 173.7, 173.7, 0.0517, -0.4973, -24.8658, 2.5872, 2.5872
183.54, (89.723,58.983), 185.8185, 100.0, 185.8184963932547, -177.48, -177.48, -0.0309, -0.499, -24.9523, -1.5436, -1.5436
193.5, (87.747,58.694), 195.7785, 100.0, 195.35847876039605, -168, -168, -0.1132, -0.487, -24.3514, -5.6578, -5.6578
202.56, (86.029,58.163), 204.8385, 100.0, 203.69846230001315, -159.72, -159.72, -0.1826, -0.4655, -23.2732, -9.13, -9.13
211.44, (84.236,57.282), 213.7184, 100.0, 212.9984385537031, -150.42, -150.42, -0.2554, -0.4298, -21.4919, -12.7711, -12.7711
220.32, (82.611,56.12), 222.5984, 100.0, 222.2384224868566, -141.12, -141.12, -0.3211, -0.3832, -19.1623, -16.0563, -16.0563
229.44, (81.194,54.712), 231.7184, 100.0, 231.71840668146575, -131.64, -131.64, -0.3799, -0.3251, -16.2561, -18.9931, -18.9931
233.28, (80.062,53.312), 235.5584, 100.0, 234.4183859136731, -128.88, -128.88, -0.3948, -0.3069, -15.3434, -19.7378, -19.7378
242.22, (78.989,51.627), 244.4984, 100.0, 243.718369769666, -119.7, -119.7, -0.4392, -0.239, -11.952, -21.9579, -21.9579
251.46, (78.203,49.791), 253.7384, 100.0, 253.01835632801587, -110.1, -110.1, -0.472, -0.1649, -8.2464, -23.6008, -23.6008
260.1, (77.724,47.851), 262.3783, 100.0, 261.89833373790725, -101.04, -101.04, -0.4918, -0.0901, -4.5044, -24.5909, -24.5909
269.28, (77.566,45.86), 271.5583, 100.0, 271.55831729292595, -91.14, -91.14, -0.5, -0.0063, -0.3142, -24.998, -24.998
278.82, (77.701,44.067), 281.0983, 100.0, 280.73830798010283, -82.56, -82.56, -0.4946, 0.0736, 3.678, -24.728, -24.728
288.3, (78.151,42.121), 290.5783, 100.0, 289.8582955993629, -73.44, -73.44, -0.4766, 0.151, 7.5509, -23.8324, -23.8324
297.3, (78.911,40.273), 299.5783, 100.0, 299.1582770928407, -64.2, -64.2, -0.446, 0.2261, 11.3031, -22.2989, -22.2989
306.3, (79.959,38.573), 308.5783, 100.0, 308.5782555632549, -54.84, -54.84, -0.403, 0.296, 14.8003, -20.1482, -20.1482
315.36, (81.267,37.062), 317.6382, 100.0, 317.6382346239458, -45.9, -45.9, -0.3513, 0.3558, 17.7884, -17.5662, -17.5662
324.48, (82.638,35.898), 326.7582, 100.0, 325.67821899294455, -37.62, -37.62, -0.2981, 0.4014, 20.0704, -14.9056, -14.9056
321, (84.274,34.75), 323.2782, 100.0, 323.9982006195304, -37.26, -37.26, -0.3098, 0.3925, 19.6248, -15.4876, -15.4876
311.4, (85.716,33.367), 313.6782, 100.0, 313.67818459539023, -47.04, -47.04, -0.3751, 0.3307, 16.5328, -18.7528, -18.7528
313.38, (87.004,31.838), 315.6582, 100.0, 315.65817267300764, -47.7, -47.7, -0.3634, 0.3434, 17.1708, -18.1704, -18.1704
314.28, (88.308,30.599), 316.5582, 100.0, 316.97815531064055, -44.16, -44.16, -0.3554, 0.3517, 17.5849, -17.77, -17.77
308.58, (89.582,29.059), 310.8581, 100.0, 310.4381391151844, -52.56, -52.56, -0.3931, 0.3089, 15.4465, -19.6572, -19.6572
314.88, (90.956,27.608), 317.1581, 100.0, 317.15812495971784, -44.1, -44.1, -0.3543, 0.3528, 17.6406, -17.7147, -17.7147
311.76, (92.132,26.246), 314.0381, 100.0, 312.8981079346714, -50.1, -50.1, -0.3795, 0.3255, 16.276, -18.9761, -18.9761
321.9, (93.58,24.87), 324.1781, 100.0, 323.3980925997669, -39.9, -39.9, -0.3138, 0.3892, 19.4616, -15.6923, -15.6923
331.32, (95.247,23.77), 333.5981, 100.0, 333.23808024347613, -30.18, -30.18, -0.2427, 0.4371, 21.857, -12.1355, -12.1355
341.52, (97.082,22.981), 343.7981, 100.0, 343.7980657802005, -19.56, -19.56, -0.1585, 0.4742, 23.7109, -7.9243, -7.9243
338.1, (98.796,22.433), 340.378, 100.0, 341.51804920523983, -19.62, -19.62, -0.1772, 0.4675, 23.3768, -8.8614, -8.8614
340.68, (100.636,21.651), 342.958, 100.0, 341.8780306212815, -21.18, -21.18, -0.1743, 0.4686, 23.432, -8.7143, -8.7143
339.84, (102.544,21.055), 342.118, 100.0, 342.8980133789987, -18.6, -18.6, -0.1659, 0.4717, 23.5835, -8.2958, -8.2958
330.06, (104.354,20.209), 332.338, 100.0, 332.6979943822797, -28.5, -28.5, -0.2468, 0.4348, 21.7417, -12.341, -12.341
320.28, (105.986,19.058), 322.558, 100.0, 322.91798269086905, -38.28, -38.28, -0.3171, 0.3866, 19.3294, -15.8548, -15.8548
310.32, (107.398,17.645), 312.598, 100.0, 312.8979692953015, -48.36, -48.36, -0.3795, 0.3255, 16.276, -18.9761, -18.9761
300.6, (108.442,16.181), 302.878, 100.0, 303.5979526621488, -57.66, -57.66, -0.4271, 0.2599, 12.9954, -21.3569, -21.3569
296.64, (109.335,14.393), 298.9179, 100.0, 298.55793540507887, -64.92, -64.92, -0.4483, 0.2214, 11.069, -22.416, -22.416
306.72, (110.391,12.697), 308.9979, 100.0, 308.9979233402122, -54.36, -54.36, -0.4008, 0.299, 14.9476, -20.0392, -20.0392
316.08, (111.581,11.349), 318.3579, 100.0, 317.57790887343424, -45.84, -45.84, -0.3517, 0.3554, 17.77, -17.5849, -17.5849
315.12, (113.071,10.016), 317.3979, 100.0, 318.17789380144535, -42.9, -42.9, -0.348, 0.3591, 17.9532, -17.3978, -17.3978
305.1, (114.364,8.493), 307.3779, 100.0, 307.7378723564418, -53.4, -53.4, -0.4073, 0.2901, 14.5034, -20.363, -20.363
305.34, (115.451,6.816), 307.6179, 100.0, 307.6178578631354, -55.8, -55.8, -0.4079, 0.2892, 14.4607, -20.3933, -20.3933
312.3, (116.617,5.446), 314.5778, 100.0, 315.35784154447214, -46.56, -46.56, -0.3652, 0.3415, 17.0755, -18.26, -18.26
304.68, (117.833,3.862), 306.9578, 100.0, 306.1778245719536, -56.4, -56.4, -0.415, 0.2789, 13.9436, -20.7503, -20.7503
313.92, (119.11,2.326), 316.1978, 100.0, 316.197804313847, -46.44, -46.44, -0.3602, 0.3468, 17.3413, -18.0077, -18.0077
323.94, (120.465,1.144), 326.2178, 100.0, 325.4977893288919, -37.98, -37.98, -0.2994, 0.4005, 20.0235, -14.9686, -14.9686
313.98, (121.979,-0.159), 316.2578, 100.0, 316.25777515588436, -44.34, -44.34, -0.3598, 0.3472, 17.3602, -17.9896, -17.9896
321.66, (123.293,-1.386), 323.9378, 100.0, 323.5177620537951, -39.96, -39.96, -0.313, 0.3899, 19.4944, -15.6515, -15.6515
314.7, (124.812,-2.684), 316.9777, 100.0, 317.3377487151978, -43.86, -43.86, -0.3532, 0.3539, 17.6962, -17.6591, -17.6591
304.56, (125.958,-4.069), 306.8377, 100.0, 307.61773781910966, -53.64, -53.64, -0.4079, 0.2892, 14.4607, -20.3933, -20.3933
312.66, (127.176,-5.653), 314.9377, 100.0, 314.2177225070073, -49.14, -49.14, -0.3719, 0.3342, 16.7088, -18.5961, -18.5961
321.54, (128.634,-7.019), 323.8177, 100.0, 323.4577032862237, -39.66, -39.66, -0.3134, 0.3896, 19.478, -15.6719, -15.6719
328.62, (130.098,-8.064), 330.8977, 100.0, 329.93768981672764, -33.3, -33.3, -0.2675, 0.4224, 21.1222, -13.3736, -13.3736
338.1, (131.886,-8.955), 340.3777, 100.0, 339.9576718438093, -22.98, -22.98, -0.1899, 0.4625, 23.1269, -9.4945, -9.4945
347.04, (133.796,-9.54), 349.3177, 100.0, 348.8976533047252, -13.32, -13.32, -0.1157, 0.4864, 24.3214, -5.7852, -5.7852
356.88, (135.774,-9.812), 359.1576, 100.0, 359.1576368895387, -4.2, -4.2, -0.0272, 0.4993, 24.9629, -1.3607, -1.3607
357.12, (137.565,-9.989), 359.3976, 100.0, 358.25762275133997, -5.16, -5.16, -0.0351, 0.4988, 24.9385, -1.7526, -1.7526
6.18, (139.563,-9.944), 8.4576, 100.0, 7.737604622128163, 4.32, 4.32, 0.0476, 0.4977, 24.8866, 2.3788, 2.3788
7.62, (141.536,-9.622), 9.8976, 100.0, 10.677588998381054, 9.18, 9.18, 0.073, 0.4946, 24.7318, 3.6521, 3.6521
358.02, (143.531,-9.53), 360.0624, 100.0, 0.23757784405028579, -0.54, -0.54, -0.0147, 0.4998, 24.9893, -0.7329, -0.7329
348.36, (145.512,-9.785), 350.4024, 100.0, 350.4024040816944, -10.86, -10.86, -0.1009, 0.4897, 24.4859, -5.044, -5.044
353.16, (147.276,-10.138), 355.2024, 100.0, 354.4223906837782, -8.76, -8.76, -0.0663, 0.4956, 24.7792, -3.3151, -3.3151
346.08, (149.25,-10.449), 348.1224, 100.0, 348.84237314114915, -12.18, -12.18, -0.1142, 0.4868, 24.3395, -5.7088, -5.7088
352.92, (151.204,-10.865), 354.9624, 100.0, 354.3023558718056, -8.88, -8.88, -0.0673, 0.4954, 24.7722, -3.3669, -3.3669
345.24, (153.173,-11.207), 347.2823, 100.0, 347.70233572258417, -13.2, -13.2, -0.1238, 0.4844, 24.2211, -6.1919, -6.1919
335.82, (155.058,-11.867), 337.8623, 100.0, 338.28231459341714, -22.8, -22.8, -0.2015, 0.4576, 22.881, -10.0727, -10.0727
343.86, (156.922,-12.584), 345.9023, 100.0, 345.54229651745953, -17.58, -17.58, -0.142, 0.4794, 23.9705, -7.1004, -7.1004
336.48, (158.629,-13.152), 338.5223, 100.0, 339.66228424137205, -21.24, -21.24, -0.1904, 0.4623, 23.117, -9.5187, -9.5187
326.76, (160.392,-14.09), 328.8023, 100.0, 329.94226692814345, -31.44, -31.44, -0.2657, 0.4236, 21.178, -13.285, -13.285
319.32, (161.997,-15.281), 321.3623, 100.0, 322.1422501293269, -39.12, -39.12, -0.3207, 0.3836, 19.1791, -16.0362, -16.0362
318.72, (163.453,-16.651), 320.7622, 100.0, 320.76222917218166, -42.36, -42.36, -0.3299, 0.3757, 18.7874, -16.4935, -16.4935
328.62, (165.072,-17.822), 330.6622, 100.0, 330.6622119895273, -32.46, -32.46, -0.2604, 0.4269, 21.3433, -13.0178, -13.0178
338.46, (166.684,-18.619), 340.5022, 100.0, 339.7821988682872, -22.98, -22.98, -0.1894, 0.4627, 23.1369, -9.4703, -9.4703
339.84, (168.581,-19.249), 341.8822, 100.0, 342.24217990307613, -18.72, -18.72, -0.1694, 0.4704, 23.522, -8.4684, -8.4684
329.64, (170.383,-20.111), 331.6822, 100.0, 331.6821647840183, -29.16, -29.16, -0.2527, 0.4314, 21.5717, -12.6358, -12.6358
339.78, (172.009,-20.878), 341.8221, 100.0, 340.74214942300205, -22.08, -22.08, -0.1816, 0.4658, 23.2923, -9.0813, -9.0813
348.72, (173.926,-21.44), 350.7621, 100.0, 350.40213068534985, -12.66, -12.66, -0.1009, 0.4897, 24.4859, -5.044, -5.044
346.14, (175.867,-21.915), 348.1821, 100.0, 347.88210970945124, -15.24, -15.24, -0.1223, 0.4848, 24.2404, -6.1158, -6.1158
356.22, (177.842,-22.214), 358.2621, 100.0, 358.2620928991632, -4.92, -4.92, -0.033, 0.4989, 24.9456, -1.6481, -1.6481
5.94, (179.64,-22.175), 7.9821, 100.0, 7.262074850010346, 4.44, 4.44, 0.0455, 0.4979, 24.8963, 2.2745, 2.2745
12.54, (181.604,-21.811), 14.5821, 100.0, 15.002059953016307, 14.04, 14.04, 0.1121, 0.4873, 24.3632, 5.6068, 5.6068
2.52, (183.586,-21.562), 4.562, 100.0, 4.562048089623322, 3.66, 3.66, 0.022, 0.4995, 24.9758, 1.0992, 1.0992
357.42, (185.383,-21.63), 359.8179, 100.0, 358.7379495903626, -4.8, -4.8, -0.0319, 0.499, 24.949, -1.5959, -1.5959
6.24, (187.38,-21.565), 8.6379, 100.0, 7.977932539547183, 4.44, 4.44, 0.0486, 0.4976, 24.8815, 2.4309, 2.4309
13.68, (189.34,-21.179), 16.0779, 100.0, 16.49791697377213, 14.7, 14.7, 0.1218, 0.4849, 24.2468, 6.0904, 6.0904
21.72, (191.249,-20.591), 24.1179, 100.0, 24.11789779017576, 20.64, 20.64, 0.185, 0.4645, 23.2251, 9.2518, 9.2518
32.04, (192.852,-19.778), 34.4379, 100.0, 33.597882083998805, 30.12, 30.12, 0.259, 0.4277, 21.3841, 12.9507, 12.9507
24.78, (194.587,-18.787), 27.1779, 100.0, 27.597866407061897, 26.34, 26.34, 0.2129, 0.4524, 22.6207, 10.6445, 10.6445
14.52, (196.47,-18.12), 16.9178, 100.0, 17.277847549296897, 15.6, 15.6, 0.1284, 0.4832, 24.1616, 6.4199, 6.4199
4.92, (198.242,-17.814), 7.3178, 100.0, 8.397829934710549, 6.78, 6.78, 0.0523, 0.4973, 24.863, 2.6132, 2.6132
9.96, (200.232,-17.626), 12.3578, 100.0, 11.577815380045852, 8.04, 8.04, 0.0798, 0.4936, 24.6798, 3.9884, 3.9884
20.16, (202.162,-17.113), 22.5578, 100.0, 21.777799731174394, 18.6, 18.6, 0.1659, 0.4717, 23.5835, 8.2958, 8.2958
15.6, (204.043,-16.437), 17.9978, 100.0, 18.357780319840188, 16.8, 16.8, 0.1375, 0.4807, 24.0363, 6.8742, 6.8742
5.4, (206.009,-16.082), 7.7978, 100.0, 8.157760190599044, 6.54, 6.54, 0.0502, 0.4975, 24.8738, 2.509, 2.509
8.7, (207.999,-15.904), 11.0977, 100.0, 11.097744178988021, 7.92, 7.92, 0.0756, 0.4942, 24.7123, 3.7815, 3.7815
18.78, (209.744,-15.471), 21.1777, 100.0, 20.337728170142462, 17.16, 17.16, 0.154, 0.4757, 23.7845, 7.7005, 7.7005
16.62, (211.622,-14.785), 19.0177, 100.0, 19.43770819796055, 18.12, 18.12, 0.1465, 0.4781, 23.9025, 7.326, 7.326
7.02, (213.58,-14.386), 9.4177, 100.0, 9.417693487550316, 8.1, 8.1, 0.0611, 0.4963, 24.8126, 3.0554, 3.0554
357.6, (215.377,-14.32), 359.7623, 100.0, 0.2376811612354699, -0.54, -0.54, -0.0147, 0.4998, 24.9893, -0.7329, -0.7329
347.64, (217.358,-14.569), 349.8023, 100.0, 350.1623032154334, -10.86, -10.86, -0.104, 0.4891, 24.4537, -5.1978, -5.1978
337.56, (219.267,-15.158), 339.7223, 100.0, 340.44229024107085, -20.7, -20.7, -0.185, 0.4645, 23.2251, -9.2518, -9.2518
345.06, (221.148,-15.83), 347.2223, 100.0, 347.22227457650104, -16.38, -16.38, -0.1289, 0.4831, 24.1549, -6.4452, -6.4452
338.64, (222.873,-16.34), 340.8023, 100.0, 341.5822596761107, -19.14, -19.14, -0.1758, 0.4681, 23.4046, -8.7879, -8.7879
343.02, (224.738,-17.059), 345.1822, 100.0, 344.8222404464829, -18.42, -18.42, -0.149, 0.4773, 23.8638, -7.451, -7.451
339.36, (226.651,-17.636), 341.5222, 100.0, 341.8222250887292, -19.62, -19.62, -0.1738, 0.4688, 23.4412, -8.6898, -8.6898
341.22, (228.503,-18.389), 343.3822, 100.0, 343.38220735316435, -19.92, -19.92, -0.161, 0.4734, 23.669, -8.0484, -8.0484
351.12, (230.25,-18.817), 353.2822, 100.0, 352.56219112375135, -10.74, -10.74, -0.0834, 0.493, 24.6499, -4.1692, -4.1692
1.38, (232.243,-18.947), 3.5422, 100.0, 3.1821725685094413, -0.06, -0.06, 0.0089, 0.4999, 24.996, 0.445, 0.445
11.46, (234.226,-18.714), 13.6222, 100.0, 13.622159181507289, 10.38, 10.38, 0.0993, 0.49, 24.5016, 4.9671, 4.9671
21.24, (235.95,-18.205), 23.4021, 100.0, 22.9821405259874, 19.68, 19.68, 0.1777, 0.4674, 23.3675, 8.8858, 8.8858
31.62, (237.739,-17.317), 33.7821, 100.0, 33.06212680686201, 30.12, 30.12, 0.2568, 0.429, 21.4516, 12.8385, 12.8385
41.46, (239.34,-16.122), 43.6221, 100.0, 43.622105505208815, 40.32, 40.32, 0.331, 0.3747, 18.7355, 16.5524, 16.5524
51.54, (240.576,-14.816), 53.7021, 100.0, 52.98209020277762, 49.74, 49.74, 0.3876, 0.3159, 15.794, 19.3791, 19.3791
61.74, (241.684,-13.154), 63.9021, 100.0, 63.06207825663986, 60.18, 60.18, 0.4369, 0.2432, 12.1584, 21.8443, 21.8443
59.16, (242.598,-11.377), 61.3221, 100.0, 61.68206509572967, 60.6, 60.6, 0.4309, 0.2536, 12.6809, 21.5452, 21.5452
48.9, (243.777,-9.764), 51.062, 100.0, 51.482047769104895, 50.1, 50.1, 0.3792, 0.3259, 16.2958, 18.959, 18.959
39.42, (245.065,-8.51), 41.582, 100.0, 42.42203530241833, 41.04, 41.04, 0.3231, 0.3816, 19.078, 16.1564, 16.1564
29.52, (246.713,-7.381), 31.682, 100.0, 32.042015934097414, 30.66, 30.66, 0.2491, 0.4335, 21.6768, 12.4546, 12.4546
25.44, (248.34,-6.612), 27.602, 100.0, 26.52200150749251, 23.28, 23.28, 0.2062, 0.4555, 22.7743, 10.3117, 10.3117
31.08, (250.077,-5.626), 33.242, 100.0, 33.661982907369186, 32.58, 32.58, 0.2612, 0.4263, 21.316, 13.0625, 13.0625
21.06, (251.875,-4.756), 23.222, 100.0, 23.581963450799826, 22.26, 22.26, 0.1826, 0.4655, 23.2732, 9.13, 9.13
11.46, (253.798,-4.215), 13.6219, 100.0, 13.621945047466793, 12.18, 12.18, 0.0993, 0.49, 24.5016, 4.9671, 4.9671
1.2, (255.586,-4.022), 3.3619, 100.0, 4.141934887633363, 3.06, 3.06, 0.0173, 0.4997, 24.9851, 0.8638, 0.8638
352.44, (257.582,-4.115), 354.9619, 100.0, 355.681922686479, -6.06, -6.06, -0.0595, 0.4964, 24.8221, -2.9774, -2.9774
342.6, (259.532,-4.549), 345.1219, 100.0, 345.54190380157166, -16.26, -16.26, -0.146, 0.4782, 23.9102, -7.3009, -7.3009
332.64, (261.374,-5.321), 335.1619, 100.0, 335.52188334211877, -26.28, -26.28, -0.227, 0.4455, 22.2752, -11.3498, -11.3498
322.98, (262.896,-6.278), 325.5019, 100.0, 326.5818669892845, -35.22, -35.22, -0.2935, 0.4048, 20.2408, -14.6734, -14.6734
313.44, (264.384,-7.611), 315.9618, 100.0, 316.32184760271247, -45.42, -45.42, -0.3609, 0.3461, 17.3036, -18.044, -18.044
303.6, (265.614,-9.184), 306.1218, 100.0, 306.1218272031301, -55.38, -55.38, -0.4165, 0.2767, 13.8348, -20.823, -20.823
294, (266.472,-10.764), 296.5218, 100.0, 296.8818088871195, -64.5, -64.5, -0.4555, 0.2062, 10.3117, -22.7743, -22.7743
283.74, (267.121,-12.653), 286.2618, 100.0, 286.92179315227565, -74.46, -74.46, -0.4843, 0.1243, 6.2172, -24.2146, -24.2146
274.2, (267.433,-14.626), 276.7218, 100.0, 276.721777390611, -84.66, -84.66, -0.4987, 0.0366, 1.831, -24.9329, -24.9329
264.24, (267.409,-16.424), 266.7618, 100.0, 267.6017565282952, -93.84, -93.84, -0.4982, -0.0429, -2.1441, -24.9079, -24.9079
254.4, (267.055,-18.39), 256.9217, 100.0, 257.94173765741147, -103.56, -103.56, -0.4839, -0.1259, -6.2933, -24.1949, -24.1949
245.04, (266.371,-20.267), 247.5617, 100.0, 247.9217254961797, -113.52, -113.52, -0.4546, -0.2081, -10.407, -22.7309, -22.7309
235.26, (265.371,-21.996), 237.7817, 100.0, 238.08171068643884, -123.24, -123.24, -0.4124, -0.2828, -14.1386, -20.618, -20.618
225.36, (264.092,-23.531), 227.8817, 100.0, 228.24169586709175, -133.2, -133.2, -0.358, -0.3491, -17.4541, -17.8984, -17.8984
233.16, (262.767,-25.025), 235.6817, 100.0, 235.68167722552718, -128.04, -128.04, -0.4002, -0.2998, -14.9896, -20.0078, -20.0078
242.88, (261.81,-26.548), 245.4017, 100.0, 244.3816663922687, -119.22, -119.22, -0.4409, -0.2358, -11.7907, -22.0449, -22.0449
252.72, (261.048,-28.394), 255.2416, 100.0, 254.82164879675122, -108.9, -108.9, -0.4763, -0.152, -7.6008, -23.8165, -23.8165
246.6, (260.408,-30.287), 249.1216, 100.0, 249.48163583290977, -111.9, -111.9, -0.4601, -0.1957, -9.7843, -23.0058, -23.0058
237.36, (259.466,-32.048), 239.8816, 100.0, 239.88162229273678, -121.56, -121.56, -0.421, -0.2697, -13.484, -21.0519, -21.0519
227.16, (258.231,-33.619), 229.6816, 100.0, 229.68160819047296, -131.64, -131.64, -0.3666, -0.34, -16.9988, -18.3314, -18.3314
222.48, (256.815,-35.03), 225.0016, 100.0, 225.0015886682033, -136.44, -136.44, -0.3377, -0.3688, -18.4378, -16.8833, -16.8833
218.28, (255.402,-36.143), 220.8016, 100.0, 220.50157571472178, -143.16, -143.16, -0.3077, -0.3941, -19.7056, -15.3847, -15.3847
224.52, (253.938,-37.503), 227.0416, 100.0, 227.04156094798472, -135.12, -135.12, -0.3506, -0.3565, -17.8251, -17.529, -17.529
234.36, (252.652,-39.032), 236.8816, 100.0, 236.88155040254637, -126.36, -126.36, -0.4063, -0.2913, -14.5673, -20.3174, -20.3174
224.04, (251.335,-40.534), 226.5615, 100.0, 226.56153814413875, -134.94, -134.94, -0.3476, -0.3594, -17.9714, -17.379, -17.379
214.14, (249.943,-41.672), 216.6615, 100.0, 217.4415229662012, -144, -144, -0.2862, -0.41, -20.4988, -14.3108, -14.3108
204.66, (248.206,-42.658), 207.1815, 100.0, 207.60151134278962, -153.84, -153.84, -0.2119, -0.4529, -22.6429, -10.5971, -10.5971
201.36, (246.337,-43.366), 203.8815, 100.0, 203.1614934401641, -160.5, -160.5, -0.1762, -0.4679, -23.3953, -8.8124, -8.8124
205.86, (244.532,-44.225), 208.3815, 100.0, 208.38147750051527, -153.06, -153.06, -0.2181, -0.4499, -22.4966, -10.9043, -10.9043
195.96, (242.659,-44.92), 198.4815, 100.0, 198.48146088282638, -163.02, -163.02, -0.1375, -0.4807, -24.0363, -6.8742, -6.8742
188.28, (240.893,-45.257), 190.8014, 100.0, 190.14144730600523, -172.44, -172.44, -0.0663, -0.4956, -24.7792, -3.3151, -3.3151
196.74, (238.949,-45.716), 199.2614, 100.0, 199.62142731534436, -162.96, -162.96, -0.147, -0.4779, -23.8948, -7.351, -7.351
186.96, (236.993,-46.119), 189.4814, 100.0, 189.48140842371467, -171.96, -171.96, -0.0606, -0.4963, -24.8158, -3.0294, -3.0294
176.82, (234.996,-46.174), 179.3414, 100.0, 179.34139149308734, 177.84, 177.84, 0.0277, -0.4992, -24.9615, 1.3868, 1.3868
166.74, (233.02,-45.885), 169.2614, 100.0, 169.62137053878524, 168.24, 168.24, 0.1116, -0.4874, -24.369, 5.5813, 5.5813
157.2, (231.309,-45.332), 159.7214, 100.0, 160.44135632151466, 158.94, 158.94, 0.188, -0.4633, -23.1665, 9.3975, 9.3975
147.36, (229.535,-44.414), 149.8813, 100.0, 150.60133451326348, 149.22, 149.22, 0.2644, -0.4244, -21.2197, 13.2184, 13.2184
137.58, (227.948,-43.201), 140.1013, 100.0, 140.4013166979293, 138.96, 138.96, 0.3353, -0.3709, -18.5435, 16.7671, 16.7671
133.14, (226.581,-41.743), 135.6613, 100.0, 135.66130435254746, 132.06, 132.06, 0.3648, -0.3419, -17.0946, 18.2421, 18.2421
143.34, (225.233,-40.553), 145.8613, 100.0, 145.14129310289871, 141.84, 141.84, 0.3035, -0.3973, -19.8657, 15.1775, 15.1775
153.18, (223.533,-39.504), 155.7013, 100.0, 155.28128017166554, 151.68, 151.68, 0.2289, -0.4445, -22.2274, 11.443, 11.443
145.92, (221.788,-38.531), 148.4413, 100.0, 148.80126474708734, 147.42, 147.42, 0.2776, -0.4159, -20.794, 13.8784, 13.8784
136.68, (220.377,-37.416), 139.2012, 100.0, 140.34124233065404, 138.54, 138.54, 0.3357, -0.3705, -18.526, 16.7865, 16.7865
126.72, (219.041,-35.932), 129.2412, 100.0, 129.9612275321946, 128.22, 128.22, 0.397, -0.304, -15.1983, 19.8498, 19.8498
121.68, (217.899,-34.29), 124.2012, 100.0, 124.92120877089866, 123.12, 123.12, 0.4222, -0.2679, -13.3957, 21.1082, 21.1082
112.32, (216.996,-32.508), 114.8412, 100.0, 115.14118767516483, 113.76, 113.76, 0.4615, -0.1923, -9.6154, 23.0769, 23.0769
102.3, (216.414,-30.597), 104.8212, 100.0, 104.82117571692258, 103.44, 103.44, 0.4885, -0.1065, -5.3258, 24.4261, 24.4261
92.64, (216.178,-28.815), 95.1612, 100.0, 95.88115972460601, 94.38, 94.38, 0.4991, -0.0293, -1.4652, 24.957, 24.957
88.62, (216.23,-26.817), 91.1411, 100.0, 90.42114509758883, 86.76, 86.76, 0.4997, 0.0183, 0.9161, 24.9832, 24.9832
96.06, (216.107,-24.823), 98.5811, 100.0, 98.9411313955185, 97.5, 97.5, 0.4969, -0.0559, -2.7954, 24.8432, 24.8432
86.52, (216.065,-23.025), 89.0411, 100.0, 89.82111610859288, 88.26, 88.26, 0.4994, 0.0236, 1.1777, 24.9722, 24.9722
78.84, (216.344,-21.047), 81.3611, 100.0, 81.00110068039967, 78.12, 78.12, 0.4899, 0.0999, 4.9927, 24.4964, 24.4964
87.36, (216.555,-19.061), 89.8811, 100.0, 90.24108294128769, 87.72, 87.72, 0.4996, 0.0199, 0.9946, 24.9802, 24.9802
77.46, (216.834,-17.083), 79.9811, 100.0, 79.9810628762934, 78.24, 78.24, 0.4881, 0.1086, 5.428, 24.4036, 24.4036
77.76, (217.156,-15.313), 80.281, 100.0, 81.00104614135994, 79.5, 79.5, 0.4899, 0.0999, 4.9927, 24.4964, 24.4964
74.76, (217.689,-13.386), 77.281, 100.0, 77.94103186845294, 74.28, 74.28, 0.4839, 0.1259, 6.2933, 24.1949, 24.1949
65.1, (218.385,-11.514), 67.621, 100.0, 67.62101292686614, 65.88, 65.88, 0.4535, 0.2105, 10.5259, 22.6761, 22.6761
75.12, (218.998,-9.824), 77.641, 100.0, 76.92099563348367, 73.32, 73.32, 0.4816, 0.1345, 6.723, 24.0791, 24.0791
67.2, (219.6,-7.919), 69.721, 100.0, 70.38097581371997, 69, 69, 0.4631, 0.1884, 9.4218, 23.1566, 23.1566
58.08, (220.509,-6.14), 60.601, 100.0, 60.960958764476345, 59.58, 59.58, 0.426, 0.2617, 13.0848, 21.3023, 21.3023
48.18, (221.581,-4.696), 50.7009, 100.0, 51.780946199582196, 50.4, 50.4, 0.3788, 0.3263, 16.3157, 18.942, 18.942
38.58, (223.022,-3.313), 41.1009, 100.0, 41.820926796495115, 40.38, 40.38, 0.3167, 0.3869, 19.346, 15.8345, 15.8345
28.62, (224.678,-2.196), 31.1409, 100.0, 32.220907368813954, 30.42, 30.42, 0.2477, 0.4343, 21.7158, 12.3865, 12.3865
18.48, (226.504,-1.386), 21.0009, 100.0, 21.660892771842292, 20.22, 20.22, 0.1639, 0.4724, 23.618, 8.1969, 8.1969
20.34, (228.415,-0.798), 22.8609, 100.0, 22.500874442391808, 18.9, 18.9, 0.1708, 0.4699, 23.4953, 8.5423, 8.5423
20.28, (230.07,-0.092), 22.8009, 100.0, 23.880860548242353, 22.44, 22.44, 0.1821, 0.4657, 23.2828, 9.1057, 9.1057
19.68, (231.976,0.51), 22.2008, 100.0, 21.540845231274393, 17.94, 17.94, 0.1629, 0.4727, 23.6351, 8.1475, 8.1475
20.1, (233.825,1.27), 22.6208, 100.0, 23.040826960988877, 21.54, 21.54, 0.1753, 0.4683, 23.4137, 8.7634, 8.7634
10.02, (235.757,1.778), 12.5408, 100.0, 12.540806198925416, 11.16, 11.16, 0.087, 0.4924, 24.6187, 4.3498, 4.3498
0.12, (237.548,1.937), 2.6408, 100.0, 3.360789831248168, 2.16, 2.16, 0.0073, 0.4999, 24.9973, 0.3665, 0.3665
350.46, (239.54,1.79), 353.0992, 100.0, 353.81920323859686, -7.8, -7.8, -0.0767, 0.4941, 24.7044, -3.8333, -3.8333
345.78, (241.288,1.366), 348.4192, 100.0, 347.2791863915565, -16.44, -16.44, -0.1324, 0.4821, 24.107, -6.6221, -6.6221
340.32, (243.217,0.845), 342.9592, 100.0, 343.7391708931781, -18.12, -18.12, -0.162, 0.473, 23.6521, -8.0979, -8.0979
345.54, (245.106,0.191), 348.1792, 100.0, 347.45915259045427, -16.32, -16.32, -0.1309, 0.4826, 24.1277, -6.5463, -6.5463
342.36, (247.047,-0.287), 344.9991, 100.0, 345.3591320667882, -16.26, -16.26, -0.1485, 0.4774, 23.8716, -7.426, -7.426
333.42, (248.898,-1.038), 336.0591, 100.0, 336.0591167778373, -25.44, -25.44, -0.2237, 0.4472, 22.3578, -11.1862, -11.1862
324.66, (250.44,-1.965), 327.2991, 100.0, 327.9591027095244, -33.6, -33.6, -0.2845, 0.4112, 20.5586, -14.2248, -14.2248
323.58, (252.004,-3.21), 326.2191, 100.0, 325.49908321921646, -38.16, -38.16, -0.3019, 0.3986, 19.9291, -15.0941, -15.0941
326.16, (253.687,-4.289), 328.7991, 100.0, 329.5190696751362, -32.04, -32.04, -0.2732, 0.4188, 20.9382, -13.6599, -13.6599
316.86, (255.243,-5.541), 319.499, 100.0, 319.49904648880477, -42.12, -42.12, -0.3419, 0.3648, 18.2421, -17.0946, -17.0946
306.9, (256.437,-6.886), 309.539, 100.0, 310.37903910573743, -51.3, -51.3, -0.3954, 0.306, 15.302, -19.7699, -19.7699
297.24, (257.492,-8.582), 299.879, 100.0, 300.2390163841147, -61.8, -61.8, -0.4431, 0.2316, 11.5824, -22.1551, -22.1551
287.76, (258.232,-10.437), 290.399, 100.0, 290.39899711716504, -71.88, -71.88, -0.4762, 0.1525, 7.6258, -23.8086, -23.8086
285.48, (258.665,-12.184), 288.119, 100.0, 287.51898488367345, -76.26, -76.26, -0.4832, 0.1284, 6.4199, -24.1616, -24.1616
287.82, (259.316,-14.074), 290.459, 100.0, 291.23896751422933, -70.62, -70.62, -0.4739, 0.1595, 7.974, -23.6942, -23.6942
277.8, (259.76,-16.021), 280.4389, 100.0, 280.79894474903415, -80.76, -80.76, -0.4949, 0.071, 3.5484, -24.7469, -24.7469
286.08, (260.156,-17.979), 288.7189, 100.0, 288.71892959260674, -74.94, -74.94, -0.4804, 0.1385, 6.9245, -24.0219, -24.0219
286.02, (260.735,-19.683), 288.6589, 100.0, 289.3189152474964, -72.18, -72.18, -0.479, 0.1435, 7.1757, -23.9481, -23.9481
284.16, (261.195,-21.629), 286.7989, 100.0, 286.79890257583463, -75.48, -75.48, -0.4848, 0.1223, 6.1158, -24.2404, -24.2404
274.92, (261.476,-23.405), 277.5589, 100.0, 277.49888575228715, -84, -84, -0.4982, 0.0424, 2.118, -24.9101, -24.9101
270.54, (261.641,-25.397), 273.1789, 100.0, 273.5388699651907, -87.96, -87.96, -0.4999, 0.0079, 0.3927, -24.9969, -24.9969
260.82, (261.481,-27.388), 263.4588, 100.0, 263.4588490464363, -98.1, -98.1, -0.4936, -0.0798, -3.9884, -24.6798, -24.6798
250.92, (260.979,-29.321), 253.5588, 100.0, 253.55883250637393, -107.94, -107.94, -0.4725, -0.1634, -8.1722, -23.6266, -23.6266
241.32, (260.245,-30.963), 243.9588, 100.0, 244.37881525431263, -116.94, -116.94, -0.4404, -0.2367, -11.8368, -22.0202, -22.0202
251.58, (259.447,-32.794), 254.2188, 100.0, 253.8587985386575, -109.86, -109.86, -0.4734, -0.161, -8.0484, -23.669, -23.669
241.86, (258.665,-34.631), 244.4988, 100.0, 244.8587823453742, -116.64, -116.64, -0.4424, -0.233, -11.6519, -22.1186, -22.1186
231.9, (257.574,-36.304), 234.5388, 100.0, 234.8987680276914, -126.66, -126.66, -0.3954, -0.306, -15.302, -19.7699, -19.7699
222.18, (256.349,-37.621), 224.8187, 100.0, 225.95874549735547, -135.9, -135.9, -0.343, -0.3638, -18.1883, -17.1518, -17.1518
225.66, (254.854,-38.948), 228.2987, 100.0, 227.51873265749276, -136.38, -136.38, -0.3528, -0.3543, -17.7147, -17.6406, -17.6406
234.66, (253.566,-40.476), 237.2987, 100.0, 236.93872123311272, -126.78, -126.78, -0.406, -0.2918, -14.5885, -20.3021, -20.3021
233.52, (252.455,-42.138), 236.1587, 100.0, 236.1587067009088, -125.7, -125.7, -0.402, -0.2973, -14.8636, -20.1016, -20.1016
243.66, (251.522,-43.675), 246.2987, 100.0, 245.51869470570892, -118.14, -118.14, -0.445, -0.2279, -11.3964, -22.2513, -22.2513
241.8, (250.677,-45.487), 244.4387, 100.0, 244.7986745753037, -116.76, -116.76, -0.4421, -0.2335, -11.6751, -22.1064, -22.1064
232.62, (249.589,-47.162), 235.2587, 100.0, 235.2586625778263, -126.3, -126.3, -0.3973, -0.3035, -15.1775, -19.8657, -19.8657
232.44, (248.304,-48.694), 235.0786, 100.0, 235.07864699776712, -128.76, -128.76, -0.3964, -0.3048, -15.2398, -19.8179, -19.8179
226.2, (247.166,-50.087), 228.8386, 100.0, 229.618632665675, -132.18, -132.18, -0.3656, -0.3411, -17.0563, -18.2779, -18.2779
216.24, (245.669,-51.409), 218.8786, 100.0, 219.5386131575705, -141.96, -141.96, -0.3002, -0.3998, -19.9921, -15.0105, -15.0105
206.58, (243.964,-52.449), 209.2186, 100.0, 209.57859765256833, -151.98, -151.98, -0.2265, -0.4457, -22.287, -11.3264, -11.3264
196.74, (242.105,-53.182), 199.3786, 100.0, 199.73858157094247, -162.18, -162.18, -0.147, -0.4779, -23.8948, -7.351, -7.351
187.26, (240.346,-53.555), 189.8986, 100.0, 190.67857029795587, -170.82, -170.82, -0.0699, -0.4951, -24.7543, -3.4966, -3.4966
177.18, (238.35,-53.636), 179.8185, 100.0, 180.47854696398727, 178.92, 178.92, 0.0188, -0.4996, -24.9822, 0.9423, 0.9423
167.7, (236.37,-53.368), 170.3385, 100.0, 170.63852552251512, 169.08, 169.08, 0.104, -0.4891, -24.4537, 5.1978, 5.1978
157.56, (234.653,-52.837), 160.1985, 100.0, 161.3385096086292, 159.78, 159.78, 0.1816, -0.4658, -23.2923, 9.0813, 9.0813
147.96, (232.872,-51.931), 150.5985, 100.0, 150.95849551066368, 149.4, 149.4, 0.2626, -0.4255, -21.2749, 13.1294, 13.1294
138.3, (231.276,-50.731), 140.9385, 100.0, 141.23847884429225, 139.68, 139.68, 0.3307, -0.3751, -18.7528, 16.5328, 16.5328
128.4, (229.906,-49.277), 131.0385, 100.0, 131.39845839160193, 129.9, 129.9, 0.3899, -0.313, -15.6515, 19.4944, 19.4944
118.92, (228.805,-47.609), 121.5584, 100.0, 121.91844308628441, 120.36, 120.36, 0.4361, -0.2445, -12.227, 21.806, 21.806
108.54, (228.008,-45.778), 111.1784, 100.0, 111.53842295721631, 110.04, 110.04, 0.473, -0.162, -8.0979, 23.6521, 23.6521
98.7, (227.582,-44.031), 101.3384, 100.0, 102.05840916457416, 100.5, 100.5, 0.4933, -0.0818, -4.0918, 24.6629, 24.6629
107.4, (227.144,-42.082), 110.0384, 100.0, 109.73839162377476, 106.32, 106.32, 0.4779, -0.147, -7.351, 23.8948, 23.8948
117.6, (226.364,-40.244), 120.2384, 100.0, 120.23837644385534, 116.82, 116.82, 0.4431, -0.2316, -11.5824, 22.1551, 22.1551
119.7, (225.544,-38.642), 122.3384, 100.0, 121.55835915464955, 117.84, 117.84, 0.4376, -0.2418, -12.0897, 21.8824, 21.8824
120.84, (224.464,-36.959), 123.4783, 100.0, 123.83834271652361, 122.22, 122.22, 0.4277, -0.259, -12.9507, 21.3841, 21.3841
110.52, (223.603,-35.157), 113.1583, 100.0, 113.51832840512853, 111.9, 111.9, 0.4672, -0.1782, -8.9103, 23.3582, 23.3582
115.62, (222.87,-33.298), 118.2583, 100.0, 118.25831343918382, 114.84, 114.84, 0.4508, -0.2162, -10.81, 22.542, 22.542
120.66, (221.963,-31.745), 123.2983, 100.0, 124.0782993884017, 122.46, 122.46, 0.4266, -0.2608, -13.0401, 21.3297, 21.3297
110.88, (221.101,-29.943), 113.5183, 100.0, 113.87829069641734, 112.32, 112.32, 0.466, -0.1811, -9.0569, 23.3018, 23.3018
117.6, (220.33,-28.1), 120.2383, 100.0, 119.87827473761642, 116.16, 116.16, 0.4445, -0.2289, -11.443, 22.2274, 22.2274
126.36, (219.274,-26.404), 128.9983, 100.0, 128.99825640467154, 125.28, 125.28, 0.4027, -0.2964, -14.8214, 20.1327, 20.1327
122.16, (218.214,-24.951), 124.7982, 100.0, 124.97824550507785, 123.48, 123.48, 0.4224, -0.2675, -13.3736, 21.1222, 21.1222
132.18, (217.015,-23.354), 134.8182, 100.0, 134.39822388238986, 130.56, 130.56, 0.373, -0.333, -16.6503, 18.6485, 18.6485
134.1, (215.707,-21.842), 136.7382, 100.0, 136.31820745005348, 132.54, 132.54, 0.3616, -0.3453, -17.2658, 18.0802, 18.0802
133.2, (214.406,-20.599), 135.8382, 100.0, 136.6181949866708, 135.06, 135.06, 0.3598, -0.3472, -17.3602, 17.9896, 17.9896
140.04, (212.987,-19.192), 142.6782, 100.0, 142.31817571107007, 138.66, 138.66, 0.3235, -0.3812, -19.0611, 16.1764, 16.1764
149.58, (211.352,-18.045), 152.2182, 100.0, 152.21816044715396, 148.32, 148.32, 0.2532, -0.4312, -21.5584, 12.6584, 12.6584
156.42, (209.575,-17.13), 159.0581, 100.0, 158.6381400524701, 155.28, 155.28, 0.2034, -0.4568, -22.8386, 10.1684, 10.1684
165.48, (207.875,-16.543), 168.1181, 100.0, 167.39812278880308, 163.74, 163.74, 0.1314, -0.4824, -24.1208, 6.5716, 6.5716
172.14, (205.912,-16.163), 174.7781, 100.0, 173.99810438632667, 170.64, 170.64, 0.0715, -0.4949, -24.7432, 3.5744, 3.5744
177.12, (203.917,-16.038), 179.7581, 100.0, 179.7580831194547, 178.26, 178.26, 0.0251, -0.4994, -24.9684, 1.2561, 1.2561
178.44, (201.925,-15.876), 181.0781, 100.0, 181.07806162341814, 177.42, 177.42, 0.0136, -0.4998, -24.9907, 0.6806, 0.6806
177.06, (200.125,-15.892), 179.698, 100.0, 180.77804675251878, 178.98, 178.98, 0.0162, -0.4997, -24.9868, 0.8114, 0.8114
167.04, (198.146,-15.625), 169.678, 100.0, 170.03803330031016, 168.54, 168.54, 0.1091, -0.488, -24.3979, 5.4536, 5.4536
163.2, (196.234,-15.044), 165.838, 100.0, 165.47802126013764, 161.88, 161.88, 0.1475, -0.4777, -23.8871, 7.376, 7.376
173.46, (194.277,-14.645), 176.098, 100.0, 175.61800156175804, 172.26, 172.26, 0.0611, -0.4963, -24.8126, 3.0554, 3.0554
178.44, (192.479,-14.584), 181.078, 100.0, 181.8579874279409, -179.7, -179.7, 0.0068, -0.5, -24.9977, 0.3403, 0.3403
180.42, (190.482,-14.487), 183.058, 100.0, 183.05797158060133, 178.98, 178.98, -0.0037, -0.5, -24.9993, -0.1833, -0.1833
179.22, (188.484,-14.563), 181.858, 100.0, 181.85795423177044, -179.7, -179.7, 0.0068, -0.5, -24.9977, 0.3403, 0.3403
170.94, (186.697,-14.369), 173.5779, 100.0, 172.79793857046127, 170.88, 170.88, 0.0854, -0.4926, -24.6322, 4.2724, 4.2724
180.9, (184.704,-14.226), 183.5379, 100.0, 183.17791908227358, 179.34, 179.34, -0.0047, -0.5, -24.9989, -0.2356, -0.2356
190.74, (182.718,-14.439), 193.3779, 100.0, 193.37790277410744, -170.34, -170.34, -0.0932, -0.4912, -24.5621, -4.6588, -4.6588
189.06, (180.962,-14.832), 191.6979, 100.0, 192.53789006484396, -169.02, -169.02, -0.086, -0.4926, -24.6277, -4.2982, -4.2982
179.46, (178.97,-14.983), 182.0979, 100.0, 182.45787720135414, -179.16, -179.16, 0.0016, -0.5, -24.9999, 0.0785, 0.0785
169.2, (176.983,-14.784), 171.8379, 100.0, 172.25785662622377, 170.76, 170.76, 0.0901, -0.4918, -24.5909, 4.5044, 4.5044
159.72, (175.249,-14.309), 162.3578, 100.0, 163.07784040402896, 161.58, 161.58, 0.1674, -0.4711, -23.5573, 8.3698, 8.3698
149.46, (173.441,-13.458), 152.0978, 100.0, 152.757829337551, 151.14, 151.14, 0.2491, -0.4335, -21.6768, 12.4546, 12.4546
146.1, (171.788,-12.335), 148.7378, 100.0, 148.37780739210916, 144.48, 144.48, 0.2815, -0.4132, -20.6623, 14.0737, 14.0737
156.12, (170.038,-11.373), 158.7578, 100.0, 158.45779148005778, 154.8, 154.8, 0.2048, -0.4561, -22.8066, 10.2401, 10.2401
166.2, (168.144,-10.738), 168.8378, 100.0, 168.8377777788024, 165.06, 165.06, 0.1193, -0.4856, -24.2784, 5.9633, 5.9633
160.62, (166.404,-10.282), 163.2578, 100.0, 164.03776415724025, 162.66, 162.66, 0.1595, -0.4739, -23.6942, 7.974, 7.974
165.72, (164.512,-9.639), 168.3577, 100.0, 167.69774841993794, 164.04, 164.04, 0.1289, -0.4831, -24.1549, 6.4452, 6.4452
172.32, (162.551,-9.249), 174.9577, 100.0, 174.9577354245822, 171.3, 171.3, 0.0668, -0.4955, -24.7757, 3.341, 3.341
171.78, (160.759,-9.089), 174.4177, 100.0, 175.49772178370023, 173.64, 173.64, 0.0621, -0.4961, -24.8061, 3.1074, 3.1074
173.04, (158.79,-8.74), 175.6777, 100.0, 174.95770408584391, 171.24, 171.24, 0.0668, -0.4955, -24.7757, 3.341, 3.341
183.18, (156.794,-8.674), 185.8177, 100.0, 185.4576925881239, -178.2, -178.2, -0.0246, -0.4994, -24.9697, -1.23, -1.23
182.46, (155.003,-8.844), 185.0977, 100.0, 185.75767885847512, -175.74, -175.74, -0.0272, -0.4993, -24.9629, -1.3607, -1.3607
171.96, (153.007,-8.759), 174.5977, 100.0, 175.61765994721685, 173.82, 173.82, 0.0611, -0.4963, -24.8126, 3.0554, 3.0554
162.36, (151.057,-8.327), 164.9976, 100.0, 165.77764538772993, 164.22, 164.22, 0.145, -0.4785, -23.9254, 7.2509, 7.2509
160.8, (149.188,-7.617), 163.4376, 100.0, 163.07763398281898, 159.36, 159.36, 0.1674, -0.4711, -23.5573, 8.3698, 8.3698
169.56, (147.251,-7.131), 172.1976, 100.0, 172.6176159331778, 169.62, 169.62, 0.087, -0.4924, -24.6187, 4.3498, 4.3498
159.84, (145.329,-6.587), 162.4776, 100.0, 162.4775988841821, 160.62, 160.62, 0.1723, -0.4694, -23.4683, 8.6161, 8.6161
149.82, (143.524,-5.731), 152.4576, 100.0, 152.81758300519266, 150.96, 150.96, 0.2486, -0.4338, -21.6898, 12.4319, 12.4319
140.22, (142.052,-4.698), 142.8576, 100.0, 143.63756976638535, 141.72, 141.72, 0.3147, -0.3886, -19.4286, 15.733, 15.733
130.5, (140.628,-3.298), 133.1376, 100.0, 133.43755326294834, 131.94, 131.94, 0.3785, -0.3267, -16.3355, 18.9249, 18.9249
125.58, (139.45,-1.684), 128.2175, 100.0, 127.79753905625465, 124.08, 124.08, 0.4088, -0.2879, -14.3965, 20.4387, 20.4387
131.1, (138.16,-0.157), 133.7375, 100.0, 134.03751788284262, 132.48, 132.48, 0.3751, -0.3307, -16.5328, 18.7528, 18.7528
137.64, (136.792,1.299), 140.2775, 100.0, 140.27750589468613, 136.56, 136.56, 0.3369, -0.3695, -18.4731, 16.8447, 16.8447
144.54, (135.404,2.444), 147.1775, 100.0, 146.51748805635887, 142.68, 142.68, 0.2947, -0.4039, -20.1946, 14.737, 14.737
153.96, (133.683,3.458), 156.5975, 100.0, 156.5974786362072, 153.24, 153.24, 0.2195, -0.4492, -22.4622, 10.975, 10.975
143.76, (131.973,4.489), 146.3975, 100.0, 146.75746494791073, 145.2, 145.2, 0.293, -0.4051, -20.2562, 14.6522, 14.6522
133.92, (130.473,5.808), 136.5574, 100.0, 136.5574433559466, 134.88, 134.88, 0.3602, -0.3468, -17.3413, 18.0077, 18.0077
130.14, (129.32,7.189), 132.7774, 100.0, 131.9374287242958, 128.16, 128.16, 0.3869, -0.3167, -15.8345, 19.346, 19.346
134.34, (127.927,8.622), 136.9774, 100.0, 137.69741802584446, 136.08, 136.08, 0.3532, -0.3539, -17.6962, 17.6591, 17.6591
141.06, (126.484,10.003), 143.6974, 100.0, 143.2773999636962, 139.68, 139.68, 0.3171, -0.3866, -19.3294, 15.8548, 15.8548
151.2, (124.82,11.108), 153.8374, 100.0, 153.8373831409258, 150.12, 150.12, 0.2409, -0.4382, -21.9077, 12.0438, 12.0438
145.02, (123.266,12.014), 147.6574, 100.0, 148.43736537462843, 146.82, 146.82, 0.281, -0.4135, -20.677, 14.0521, 14.0521
155.16, (121.542,13.021), 157.7973, 100.0, 157.0773498525505, 153.36, 153.36, 0.2157, -0.4511, -22.5533, 10.7864, 10.7864
145.44, (119.802,14.002), 148.0773, 100.0, 148.4373313876028, 146.94, 146.94, 0.281, -0.4135, -20.677, 14.0521, 14.0521
149.22, (118.156,15.137), 151.8573, 100.0, 151.85731327881632, 148.14, 148.14, 0.2559, -0.4296, -21.4785, 12.7936, 12.7936
148.62, (116.573,15.992), 151.2573, 100.0, 151.91729713409998, 150.3, 150.3, 0.2554, -0.4298, -21.4919, 12.7711, 12.7711
139.02, (114.953,17.161), 141.6573, 100.0, 142.73727797430456, 141.18, 141.18, 0.3207, -0.3836, -19.1791, 16.0362, 16.0362
129.12, (113.56,18.593), 131.7573, 100.0, 132.11726227259427, 130.62, 130.62, 0.3859, -0.3179, -15.8952, 19.2962, 19.2962
119.52, (112.445,20.25), 122.1572, 100.0, 122.1572471265806, 120.72, 120.72, 0.4351, -0.2464, -12.3182, 21.7546, 21.7546
109.2, (111.702,21.887), 111.8372, 100.0, 112.97723493805144, 111.42, 111.42, 0.4688, -0.1738, -8.6898, 23.4412, 23.4412
105.12, (111.167,23.813), 107.7572, 100.0, 106.91721741152438, 103.2, 103.2, 0.4846, -0.1233, -6.1665, 24.2275, 24.2275
114.3, (110.488,25.692), 116.9372, 100.0, 116.51720065854423, 113.22, 113.22, 0.4572, -0.2024, -10.1206, 22.8599, 22.8599
122.82, (109.503,27.429), 125.4572, 100.0, 125.75718179202948, 123.12, 123.12, 0.4188, -0.2732, -13.6599, 20.9382, 20.9382
112.92, (108.664,29.019), 115.5572, 100.0, 116.21716484137968, 114.6, 114.6, 0.4583, -0.2, -10.0007, 22.9126, 22.9126
103.2, (108.047,30.919), 105.8371, 100.0, 106.25714681280431, 104.34, 104.34, 0.4859, -0.1177, -5.887, 24.297, 24.297
113.64, (107.42,32.816), 116.2771, 100.0, 115.55713410284139, 111.78, 111.78, 0.4605, -0.1947, -9.7361, 23.0262, 23.0262
123.6, (106.459,34.566), 126.2371, 100.0, 125.87711915504889, 122.58, 122.58, 0.4182, -0.2741, -13.7037, 20.9095, 20.9095
124.56, (105.333,36.219), 127.1971, 100.0, 126.77710418591181, 123.36, 123.36, 0.4138, -0.2806, -14.0304, 20.6917, 20.6917
129.9, (104.2,37.616), 132.5371, 100.0, 133.2570917684977, 131.64, 131.64, 0.3795, -0.3255, -16.276, 18.9761, 18.9761
119.82, (103.057,39.254), 122.4571, 100.0, 122.75707861060026, 121.2, 121.2, 0.4325, -0.2509, -12.5453, 21.6244, 21.6244
127.62, (101.974,40.932), 130.2571, 100.0, 130.25705617880473, 126.48, 126.48, 0.396, -0.3052, -15.2605, 19.8019, 19.8019
120.78, (100.924,42.392), 123.417, 100.0, 124.49703786946424, 122.94, 122.94, 0.4247, -0.2639, -13.1961, 21.2335, 21.2335
121.5, (99.962,44.145), 124.137, 100.0, 123.35701733536432, 119.64, 119.64, 0.4298, -0.2554, -12.7711, 21.4919, 21.4919
121.62, (98.839,45.8), 124.257, 100.0, 124.97699683318136, 123.42, 123.42, 0.4224, -0.2675, -13.3736, 21.1222, 21.1222
113.28, (97.931,47.579), 115.917, 100.0, 116.57698226790863, 115.08, 115.08, 0.457, -0.2029, -10.1445, 22.8493, 22.8493
105.9, (97.298,49.474), 108.537, 100.0, 108.17696256753861, 104.76, 104.76, 0.4817, -0.134, -6.6978, 24.0861, 24.0861
116.22, (96.66,51.155), 118.8569, 100.0, 117.7769490613083, 114, 114, 0.4526, -0.2124, -10.6208, 22.6318, 22.6318
110.28, (95.823,52.969), 112.9169, 100.0, 113.21693957916142, 111.66, 111.66, 0.4681, -0.1758, -8.7879, 23.4046, 23.4046
101.22, (95.274,54.89), 103.8569, 100.0, 104.21692493536553, 102.72, 102.72, 0.4898, -0.1004, -5.0184, 24.4911, 24.4911
104.88, (94.891,56.852), 107.5169, 100.0, 107.51691248109083, 103.74, 103.74, 0.4832, -0.1284, -6.4199, 24.1616, 24.1616
103.8, (94.367,58.574), 106.4369, 100.0, 107.09689457956812, 105.6, 105.6, 0.4842, -0.1249, -6.2426, 24.2081, 24.2081
94.8, (94.038,60.545), 97.4369, 100.0, 98.1568814169733, 96.48, 96.48, 0.4977, -0.0481, -2.4048, 24.8841, 24.8841
85.62, (94.031,62.543), 88.2569, 100.0, 88.67686269293348, 87.24, 87.24, 0.4988, 0.0345, 1.7265, 24.9403, 24.9403
76.38, (94.354,64.514), 79.0169, 100.0, 79.01685122450452, 77.4, 77.4, 0.4859, 0.1177, 5.887, 24.297, 24.297
66.54, (95.002,66.403), 69.1768, 100.0, 69.17683989058298, 67.62, 67.62, 0.4587, 0.1991, 9.9527, 22.9335, 22.9335
57.06, (95.859,67.984), 59.6968, 100.0, 60.3568251594931, 58.5, 58.5, 0.4227, 0.267, 13.3514, 21.1362, 21.1362
47.16, (97.087,69.559), 49.7968, 100.0, 50.51680870370173, 48.3, 48.3, 0.3709, 0.3353, 16.7671, 18.5435, 18.5435
37.32, (98.567,70.9), 39.9568, 100.0, 39.95678741865977, 38.64, 38.64, 0.3031, 0.3976, 19.8815, 15.1567, 15.1567
46.32, (99.916,72.09), 48.9568, 100.0, 48.17677632212822, 44.4, 44.4, 0.3569, 0.3502, 17.5103, 17.8435, 17.8435
37.62, (101.378,73.45), 40.2568, 100.0, 40.97675591721282, 39.36, 39.36, 0.3102, 0.3922, 19.6086, 15.5082, 15.5082
28.14, (103.055,74.537), 30.7767, 100.0, 31.136737270720268, 29.52, 29.52, 0.2386, 0.4394, 21.9704, 11.929, 11.929
18.18, (104.704,75.252), 20.8167, 100.0, 21.89672032276915, 20.4, 20.4, 0.1649, 0.472, 23.6008, 8.2464, 8.2464
8.46, (106.645,75.726), 11.0967, 100.0, 11.756695008742685, 10.2, 10.2, 0.0793, 0.4937, 24.684, 3.9626, 3.9626
359.16, (108.638,75.857), 1.5567, 100.0, 1.856683944213665, 0.24, 0.24, -0.0047, 0.5, 24.9989, -0.2356, -0.2356
4.38, (110.636,75.864), 7.3833, 100.0, 7.38330467988307, 3.18, 3.18, 0.0382, 0.4985, 24.927, 1.9093, 1.9093
360.18, (112.43,76.001), 2.8233, 100.0, 4.023287723175036, 1.74, 1.74, 0.0089, 0.4999, 24.996, 0.445, 0.445
355.74, (114.424,75.87), 359.1033, 100.0, 358.7432728790777, -5.76, -5.76, -0.0403, 0.4984, 24.9188, -2.0137, -2.0137
1.26, (116.423,75.88), 4.6233, 100.0, 5.043260852012198, 2.76, 2.76, 0.0147, 0.4998, 24.9893, 0.7329, 0.7329
351.6, (118.416,75.758), 355.1967, 100.0, 355.5567402198949, -7.38, -7.38, -0.0699, 0.4951, 24.7543, -3.4966, -3.4966
346.5, (120.372,75.344), 350.0967, 100.0, 350.0967250225127, -12.66, -12.66, -0.1167, 0.4862, 24.3092, -5.8361, -5.8361
339.42, (122.077,74.77), 343.0167, 100.0, 342.65671329523434, -21.66, -21.66, -0.1787, 0.467, 23.3489, -8.9348, -8.9348
348.54, (124.003,74.239), 352.1367, 100.0, 351.83669825793544, -11.7, -11.7, -0.1019, 0.4895, 24.4752, -5.0953, -5.0953
358.56, (125.988,74.022), 2.1567, 100.0, 2.1566830560355044, -2.52, -2.52, -0.0126, 0.4998, 24.9921, -0.6283, -0.6283
354.9, (127.978,73.832), 358.7433, 100.0, 358.4433081366947, -6.42, -6.42, -0.0471, 0.4978, 24.889, -2.3527, -2.3527
359.34, (129.776,73.807), 3.0633, 100.0, 3.483291259336837, 1.08, 1.08, -0.0021, 0.5, 24.9998, -0.1047, -0.1047
2.64, (131.775,73.768), 7.0767, 100.0, 6.656695003307284, 1.5, 1.5, 0.0194, 0.4996, 24.9812, 0.9684, 0.9684
0.72, (133.57,73.884), 5.1567, 100.0, 5.096678889774502, 1.68, 1.68, 0.0058, 0.5, 24.9983, 0.288, 0.288
10.56, (135.559,74.074), 14.9967, 100.0, 14.576664773160239, 9.18, 9.18, 0.088, 0.4922, 24.6095, 4.4013, 4.4013
7.68, (137.532,74.395), 12.1166, 100.0, 12.47664587204876, 8.76, 8.76, 0.0699, 0.4951, 24.7543, 3.4966, 3.4966
3.48, (139.528,74.512), 7.9166, 100.0, 7.916631784995025, 2.4, 2.4, 0.0304, 0.4991, 24.9539, 1.5175, 1.5175
8.88, (141.308,74.77), 13.3166, 100.0, 13.916614087145552, 10.62, 10.62, 0.0824, 0.4932, 24.6586, 4.1176, 4.1176
1.08, (143.301,74.908), 5.5166, 100.0, 4.796596783737766, 0.36, 0.36, 0.0031, 0.5, 24.9995, 0.1571, 0.1571
9.96, (145.287,75.121), 14.3966, 100.0, 14.396579144630062, 9.9, 9.9, 0.0865, 0.4925, 24.6232, 4.324, 4.324
20.04, (147.023,75.59), 24.4766, 100.0, 23.696561758147908, 18.12, 18.12, 0.1649, 0.472, 23.6008, 8.2464, 8.2464
17.28, (148.938,76.163), 21.7165, 100.0, 21.716549185770578, 16.14, 16.14, 0.1485, 0.4774, 23.8716, 7.426, 7.426
26.34, (150.786,76.922), 30.7765, 100.0, 30.356530973311287, 25.2, 25.2, 0.2186, 0.4497, 22.4851, 10.9279, 10.9279
31.56, (152.502,77.947), 35.9965, 100.0, 35.99651443173707, 32.34, 32.34, 0.2617, 0.426, 21.3023, 13.0848, 13.0848
40.44, (153.964,78.994), 44.8765, 100.0, 44.21649999550222, 38.7, 38.7, 0.3199, 0.3843, 19.2127, 15.996, 15.996
34.08, (155.557,80.2), 38.5165, 100.0, 38.21648333559015, 33.42, 33.42, 0.278, 0.4156, 20.7795, 13.9001, 13.9001
42.72, (157.103,81.465), 47.1565, 100.0, 47.4564678677803, 43.08, 43.08, 0.3411, 0.3656, 18.2779, 17.0563, 17.0563
46.08, (158.58,82.811), 50.5165, 100.0, 50.51645134633916, 45.06, 45.06, 0.3602, 0.3468, 17.3413, 18.0077, 18.0077
53.94, (159.741,84.186), 58.3764, 100.0, 57.35643656264717, 51.9, 51.9, 0.3989, 0.3015, 15.0732, 19.9449, 19.9449
63.96, (160.775,85.895), 68.3964, 100.0, 68.03642158792292, 62.52, 62.52, 0.4479, 0.2223, 11.1159, 22.3928, 22.3928
63.96, (161.571,87.728), 68.3964, 100.0, 68.75640531298073, 65.46, 65.46, 0.4506, 0.2167, 10.8336, 22.5307, 22.5307
54.54, (162.611,89.434), 58.9764, 100.0, 58.97638724503373, 54.96, 54.96, 0.4073, 0.2901, 14.5034, 20.363, 20.363
44.22, (163.784,90.796), 48.6564, 100.0, 49.37637371292349, 46.02, 46.02, 0.3532, 0.3539, 17.6962, 17.6591, 17.6591
41.7, (165.299,92.101), 46.1364, 100.0, 45.83635544215615, 40.26, 40.26, 0.3307, 0.3751, 18.7528, 16.5328, 16.5328
51.24, (166.535,93.407), 55.6763, 100.0, 55.3163385944652, 49.8, 49.8, 0.3879, 0.3155, 15.7737, 19.3957, 19.3957
61.5, (167.647,95.066), 65.9363, 100.0, 65.21632629166895, 59.64, 59.64, 0.4364, 0.2441, 12.2041, 21.8188, 21.8188
66.3, (168.468,96.888), 70.7363, 100.0, 71.09631214700771, 67.74, 67.74, 0.4591, 0.1981, 9.9047, 22.9543, 22.9543
56.4, (169.328,98.467), 60.8363, 100.0, 61.61629657029622, 58.26, 58.26, 0.4202, 0.271, 13.55, 21.0094, 21.0094
50.34, (170.561,100.039), 54.7763, 100.0, 53.99628292559437, 48.48, 48.48, 0.3805, 0.3243, 16.2163, 19.0271, 19.0271
60.18, (171.697,101.682), 64.6163, 100.0, 64.61627011499198, 59.1, 59.1, 0.4338, 0.2486, 12.4319, 21.6898, 21.6898
70.26, (172.525,103.5), 74.6962, 100.0, 74.69624888535091, 69.3, 69.3, 0.4706, 0.1689, 8.4438, 23.5309, 23.5309
78.54, (172.984,105.238), 82.9762, 100.0, 83.69623477974702, 78.42, 78.42, 0.4912, 0.0932, 4.6588, 24.5621, 24.5621
68.52, (173.547,107.154), 72.9562, 100.0, 73.31621795001058, 70.02, 70.02, 0.4664, 0.1802, 9.0081, 23.3207, 23.3207
58.8, (174.445,108.938), 63.2362, 100.0, 63.23619722412497, 59.52, 59.52, 0.4277, 0.259, 12.9507, 21.3841, 21.3841
68.16, (175.255,110.544), 72.5962, 100.0, 71.81617921661227, 66.36, 66.36, 0.4615, 0.1923, 9.6154, 23.0769, 23.0769
77.16, (175.874,112.443), 81.5962, 100.0, 80.87616568075885, 75.36, 75.36, 0.4861, 0.1172, 5.8616, 24.3031, 24.3031
69.3, (176.407,114.368), 73.7361, 100.0, 74.39614752405456, 71.04, 71.04, 0.4697, 0.1713, 8.5669, 23.4863, 23.4863
76.68, (177.029,116.267), 81.1161, 100.0, 80.75613193806956, 75.18, 75.18, 0.4858, 0.1182, 5.9125, 24.2908, 24.2908
86.34, (177.297,118.045), 90.7761, 100.0, 90.05611881051867, 84.6, 84.6, 0.4985, 0.0382, 1.9093, 24.927, 24.927
96.18, (177.261,120.042), 100.6161, 100.0, 99.89609511731571, 94.74, 94.74, 0.4977, -0.0476, -2.3788, 24.8866, 24.8866
93.66, (177.017,122.026), 98.0961, 100.0, 98.09607527247873, 94.62, 94.62, 0.499, -0.0319, -1.5959, 24.949, 24.949
83.28, (177.064,123.823), 87.7161, 100.0, 88.79605790979751, 85.38, 85.38, 0.4976, 0.0491, 2.4569, 24.879, 24.879
88.08, (177.285,125.81), 92.516, 100.0, 91.79603935882814, 86.28, 86.28, 0.4995, 0.023, 1.1515, 24.9735, 24.9735
96.36, (177.215,127.807), 100.796, 100.0, 100.43602323822046, 94.86, 94.86, 0.4973, -0.0523, -2.6132, 24.863, 24.863
105.3, (176.835,129.769), 109.736, 100.0, 109.73600842853212, 104.22, 104.22, 0.4823, -0.1319, -6.5968, 24.1139, 24.1139
112.5, (176.245,131.468), 116.936, 100.0, 116.21599443479502, 110.64, 110.64, 0.4643, -0.1855, -9.2761, 23.2154, 23.2154
122.52, (175.332,133.245), 126.956, 100.0, 126.29597607727094, 120.78, 120.78, 0.4247, -0.2639, -13.1961, 21.2335, 21.2335
125.88, (174.144,134.853), 130.316, 100.0, 130.67596475821247, 127.32, 127.32, 0.4033, -0.2956, -14.7792, 20.1637, 20.1637
127.8, (173.009,136.499), 132.2359, 100.0, 132.23594187219715, 126.66, 126.66, 0.3951, -0.3065, -15.3227, 19.7539, 19.7539
126.54, (171.857,137.881), 130.9759, 100.0, 132.05592218348954, 128.34, 128.34, 0.396, -0.3052, -15.2605, 19.8019, 19.8019
116.82, (170.803,139.578), 121.2559, 100.0, 121.97590180229258, 118.38, 118.38, 0.4433, -0.2312, -11.5592, 22.1672, 22.1672
126.3, (169.771,141.288), 130.7359, 100.0, 130.37588072101508, 124.8, 124.8, 0.4048, -0.2935, -14.6734, 20.2408, 20.2408
117.36, (168.708,142.979), 121.7959, 100.0, 121.79586082445248, 118.44, 118.44, 0.4441, -0.2298, -11.4895, 22.2034, 22.2034
107.88, (168.024,144.641), 112.3158, 100.0, 112.97584269033834, 109.56, 109.56, 0.4741, -0.159, -7.9492, 23.7025, 23.7025
116.94, (167.28,146.495), 121.3758, 100.0, 121.01582203708432, 115.5, 115.5, 0.4472, -0.2237, -11.1862, 22.3578, 22.3578
122.64, (166.232,148.197), 127.0758, 100.0, 127.4358037326921, 123.78, 123.78, 0.4193, -0.2723, -13.616, 20.9668, 20.9668
112.74, (165.397,149.789), 117.1758, 100.0, 117.89579242198158, 114.6, 114.6, 0.4587, -0.1991, -9.9527, 22.9335, 22.9335
106.26, (164.78,151.689), 110.6958, 100.0, 109.91577675769358, 104.46, 104.46, 0.4819, -0.1335, -6.6725, 24.0931, 24.0931
116.16, (164.06,153.553), 120.5958, 100.0, 120.2357680238377, 114.72, 114.72, 0.4502, -0.2176, -10.8808, 22.508, 22.508
125.58, (163.037,155.268), 130.0158, 100.0, 129.59575450066163, 124.38, 124.38, 0.4088, -0.2879, -14.3965, 20.4387, 20.4387
134.28, (161.89,156.653), 138.7157, 100.0, 137.99574223197507, 132.42, 132.42, 0.3623, -0.3446, -17.2278, 18.1163, 18.1163
130.8, (160.475,158.066), 135.2357, 100.0, 136.0157270721537, 132.72, 132.72, 0.374, -0.3318, -16.5916, 18.7007, 18.7007
132.48, (159.21,159.613), 136.9157, 100.0, 136.55571219657966, 131.04, 131.04, 0.3709, -0.3353, -16.7671, 18.5435, 18.5435
141.6, (157.741,160.968), 146.0357, 100.0, 146.03569870537967, 140.46, 140.46, 0.3106, -0.3918, -19.5923, 15.5287, 15.5287
142.14, (156.271,162.006), 146.5757, 100.0, 147.71568412396545, 144.36, 144.36, 0.299, -0.4008, -20.0392, 14.9476, 14.9476
139.32, (154.769,163.324), 143.7557, 100.0, 142.9756711879703, 137.52, 137.52, 0.331, -0.3747, -18.7355, 16.5524, 16.5524
148.44, (153.15,164.496), 152.8757, 100.0, 152.5156542712822, 146.94, 146.94, 0.2644, -0.4244, -21.2197, 13.2184, 13.2184
157.14, (151.549,165.315), 161.5756, 100.0, 160.4356377520776, 156, 156, 0.2034, -0.4568, -22.8386, 10.1684, 10.1684
166.32, (149.653,165.943), 170.7556, 100.0, 169.67562085882403, 165.24, 165.24, 0.1274, -0.4835, -24.175, 6.3693, 6.3693
175.14, (147.68,166.255), 179.5756, 100.0, 179.9356005942073, 174.78, 174.78, 0.0392, -0.4985, -24.9229, 1.9615, 1.9615
185.28, (145.683,166.238), 189.7156, 100.0, 189.35558339773127, -175.8, -175.8, -0.0429, -0.4982, -24.9079, -2.1441, -2.1441
186.24, (143.687,166.116), 190.6756, 100.0, 190.6755698776147, -174.84, -174.84, -0.0543, -0.497, -24.8519, -2.7173, -2.7173
186, (141.909,165.842), 190.4356, 100.0, 191.1555551826755, -172.14, -172.14, -0.0585, -0.4966, -24.8282, -2.9254, -2.9254
178.74, (139.912,165.796), 183.1755, 100.0, 182.45554068098838, 177.6, 177.6, 0.0173, -0.4997, -24.9851, 0.8638, 0.8638
187.62, (137.918,165.665), 192.0555, 100.0, 192.05552218861743, -172.44, -172.44, -0.0663, -0.4956, -24.7792, -3.3151, -3.3151
197.46, (136.165,165.269), 201.8955, 100.0, 201.53550729718228, -164.04, -164.04, -0.147, -0.4779, -23.8948, -7.351, -7.351
206.7, (134.308,164.532), 211.1355, 100.0, 210.77548942028014, -154.86, -154.86, -0.2218, -0.4481, -22.4044, -11.0924, -11.0924
210.18, (132.525,163.628), 214.6155, 100.0, 214.25548028779278, -151.26, -151.26, -0.2486, -0.4338, -21.6898, -12.4319, -12.4319
209.22, (130.832,162.565), 213.6555, 100.0, 213.65545915429024, -149.64, -149.64, -0.2441, -0.4364, -21.8188, -12.2041, -12.2041
202.98, (129.195,161.819), 207.4154, 100.0, 206.5754462866362, -158.58, -158.58, -0.1884, -0.4631, -23.1566, -9.4218, -9.4218
210.72, (127.43,160.882), 215.1554, 100.0, 215.5154329933626, -148.2, -148.2, -0.2581, -0.4282, -21.4112, -12.9059, -12.9059
200.88, (125.627,160.024), 205.3154, 100.0, 205.31541228210332, -158.34, -158.34, -0.1782, -0.4672, -23.3582, -8.9103, -8.9103
197.58, (123.904,159.506), 202.0154, 100.0, 201.3554017481871, -164.16, -164.16, -0.1455, -0.4784, -23.9178, -7.2759, -7.2759
207.78, (122.06,158.739), 212.2154, 100.0, 211.8553835937532, -153.78, -153.78, -0.2303, -0.4438, -22.1914, -11.5127, -11.5127
206.34, (120.318,157.757), 210.7754, 100.0, 211.13537104285876, -152.22, -152.22, -0.2247, -0.4467, -22.3343, -11.233, -11.233
197.04, (118.458,157.029), 201.4754, 100.0, 201.47535461005717, -161.94, -161.94, -0.1465, -0.4781, -23.9025, -7.326, -7.326
187.14, (116.699,156.657), 191.5753, 100.0, 192.3553365543343, -171, -171, -0.0689, -0.4952, -24.7615, -3.4448, -3.4448
186.36, (114.705,156.509), 190.7953, 100.0, 190.43532059793432, -175.14, -175.14, -0.0523, -0.4973, -24.863, -2.6132, -2.6132
196.44, (112.748,156.109), 200.8753, 100.0, 200.51530826742547, -164.64, -164.64, -0.1385, -0.4804, -24.0219, -6.9245, -6.9245
206.4, (111.073,155.454), 210.8353, 100.0, 210.05529538319107, -155.46, -155.46, -0.2162, -0.4508, -22.542, -10.81, -10.81
200.64, (109.268,154.598), 205.0753, 100.0, 205.73528258195026, -157.62, -157.62, -0.1816, -0.4658, -23.2923, -9.0813, -9.0813
190.44, (107.344,154.06), 194.8753, 100.0, 195.2952679340428, -168.06, -168.06, -0.0942, -0.491, -24.5523, -4.7102, -4.7102
195.3, (105.383,153.675), 199.7352, 100.0, 199.7352479122684, -165.84, -165.84, -0.1319, -0.4823, -24.1139, -6.5968, -6.5968
188.46, (103.632,153.266), 192.8952, 100.0, 193.61523061707317, -169.8, -169.8, -0.0798, -0.4936, -24.6798, -3.9884, -3.9884
194.7, (101.664,152.918), 199.1352, 100.0, 198.77521167573576, -166.68, -166.68, -0.1238, -0.4844, -24.2211, -6.1919, -6.1919
186.18, (99.704,152.537), 190.6152, 100.0, 191.0351913776464, -172.68, -172.68, -0.0575, -0.4967, -24.8343, -2.8734, -2.8734
183.72, (97.717,152.31), 188.1552, 100.0, 188.15517657554045, -175.2, -175.2, -0.0324, -0.4989, -24.9473, -1.622, -1.622
174, (95.92,152.348), 178.4352, 100.0, 179.09516194380942, 175.8, 175.8, 0.0465, -0.4978, -24.8915, 2.3266, 2.3266
164.22, (93.958,152.724), 168.6551, 100.0, 169.01514266087332, 165.66, 165.66, 0.1329, -0.482, -24.1001, 6.6473, 6.6473
163.44, (92.063,153.361), 167.8751, 100.0, 167.5751248150273, 162.12, 162.12, 0.145, -0.4785, -23.9254, 7.2509, 7.2509
164.82, (90.117,153.823), 169.2551, 100.0, 169.67510669715398, 165.9, 165.9, 0.1274, -0.4835, -24.175, 6.3693, 6.3693
160.86, (88.42,154.419), 165.2951, 100.0, 164.6350936984629, 159.12, 159.12, 0.1694, -0.4704, -23.522, 8.4684, 8.4684
171.36, (86.482,154.902), 175.7951, 100.0, 175.13508135789024, 169.56, 169.56, 0.0808, -0.4934, -24.6714, 4.0401, 4.0401
175.32, (84.49,155.06), 179.7551, 100.0, 180.1150666449422, 176.64, 176.64, 0.0377, -0.4986, -24.929, 1.8832, 1.8832
175.38, (82.505,155.303), 179.815, 100.0, 179.81504796986292, 174.36, 174.36, 0.0403, -0.4984, -24.9188, 2.0137, 2.0137
175.68, (80.707,155.356), 180.115, 100.0, 180.89503805562754, 177.66, 177.66, 0.0309, -0.499, -24.9523, 1.5436, 1.5436
165.72, (78.735,155.677), 170.155, 100.0, 170.51502132848123, 167.16, 167.16, 0.1203, -0.4853, -24.2658, 6.0142, 6.0142
155.64, (77.036,156.264), 160.075, 100.0, 161.15500462110347, 157.86, 157.86, 0.1976, -0.4593, -22.9646, 9.8806, 9.8806
146.28, (75.283,157.223), 150.715, 100.0, 151.13498800138055, 147.84, 147.84, 0.2745, -0.4179, -20.8952, 13.7256, 13.7256
136.56, (73.725,158.472), 140.995, 100.0, 140.99497252334382, 137.7, 137.7, 0.3438, -0.363, -18.1524, 17.1899, 17.1899
126.54, (72.409,159.975), 130.975, 100.0, 130.9749550429522, 127.56, 127.56, 0.4017, -0.2977, -14.8846, 20.086, 20.086
116.76, (71.466,161.506), 121.1949, 100.0, 122.27494130062541, 118.56, 118.56, 0.4421, -0.2335, -11.6751, 22.1064, 22.1064
107.22, (70.715,163.357), 111.6549, 100.0, 112.01492600844841, 108.66, 108.66, 0.4766, -0.151, -7.5509, 23.8324, 23.8324
97.44, (70.299,165.311), 101.8749, 100.0, 102.29491031044626, 98.58, 98.58, 0.4953, -0.0684, -3.4188, 24.7651, 24.7651
87.78, (70.216,167.107), 92.2149, 100.0, 93.3548886516136, 89.7, 89.7, 0.4999, 0.0094, 0.4712, 24.9956, 24.9956
78, (70.454,169.091), 82.4349, 100.0, 83.45487332873945, 79.68, 79.68, 0.4908, 0.0952, 4.7617, 24.5423, 24.5423
78.6, (70.942,171.03), 83.0349, 100.0, 82.31485774792637, 76.8, 76.8, 0.4889, 0.105, 5.249, 24.4428, 24.4428
85.74, (71.172,173.014), 90.1748, 100.0, 90.59483993096872, 86.88, 86.88, 0.4989, 0.0335, 1.6743, 24.9439, 24.9439
76.02, (71.456,174.79), 80.4548, 100.0, 81.17482211422728, 77.76, 77.76, 0.4867, 0.1147, 5.7343, 24.3335, 24.3335
66.18, (72.091,176.683), 70.6148, 100.0, 71.39480250375178, 67.8, 67.8, 0.4601, 0.1957, 9.7843, 23.0058, 23.0058
55.98, (73.048,178.437), 60.4148, 100.0, 61.134789886949726, 57.66, 57.66, 0.4179, 0.2745, 13.7256, 20.8952, 20.8952
46.14, (74.295,179.996), 50.5748, 100.0, 50.934770808639996, 47.64, 47.64, 0.3627, 0.3442, 17.2089, 18.1344, 18.1344
36.3, (75.806,181.303), 40.7348, 100.0, 40.73475547560084, 37.32, 37.32, 0.296, 0.403, 20.1482, 14.8003, 14.8003
45, (77.187,182.455), 49.4347, 100.0, 48.41473803694992, 42.96, 42.96, 0.3472, 0.3598, 17.9896, 17.3602, 17.3602
51.54, (78.491,183.968), 55.9747, 100.0, 56.39472029933242, 53.04, 53.04, 0.3938, 0.3081, 15.4053, 19.6895, 19.6895
43.86, (79.862,185.421), 48.2947, 100.0, 47.93470040478119, 42.78, 42.78, 0.3442, 0.3627, 18.1344, 17.2089, 17.2089
43.08, (81.251,186.859), 47.5147, 100.0, 47.87468723435272, 44.52, 44.52, 0.3438, 0.363, 18.1524, 17.1899, 17.1899
42.84, (82.619,188.028), 47.2747, 100.0, 46.614671615935464, 41.16, 41.16, 0.3357, 0.3705, 18.526, 16.7865, 16.7865
40.32, (84.056,189.418), 44.7547, 100.0, 45.5346568826595, 42.18, 42.18, 0.3287, 0.3768, 18.8391, 16.4344, 16.4344
30.54, (85.685,190.574), 34.9746, 100.0, 35.33464590857996, 31.62, 31.62, 0.2568, 0.429, 21.4516, 12.8385, 12.8385
20.52, (87.492,191.425), 24.9546, 100.0, 25.25462719160035, 21.96, 21.96, 0.1777, 0.4674, 23.3675, 8.8858, 8.8858
10.62, (89.225,191.905), 15.0546, 100.0, 15.774612749299546, 12.42, 12.42, 0.0983, 0.4902, 24.5119, 4.9158, 4.9158
9.84, (91.206,192.175), 14.2746, 100.0, 13.554596807161712, 7.98, 7.98, 0.0793, 0.4937, 24.684, 3.9626, 3.9626
19.98, (93.137,192.684), 24.4146, 100.0, 23.694583484812323, 18.24, 18.24, 0.1649, 0.472, 23.6008, 8.2464, 8.2464
20.76, (94.979,193.461), 25.1946, 100.0, 25.554562810060535, 22.14, 22.14, 0.1802, 0.4664, 23.3207, 9.0081, 9.0081
11.7, (96.707,193.961), 16.1345, 100.0, 16.854541414913488, 13.56, 13.56, 0.1075, 0.4883, 24.4149, 5.3769, 5.3769
1.62, (98.69,194.199), 6.0545, 100.0, 6.834523948495349, 3.18, 3.18, 0.0209, 0.4996, 24.9781, 1.0469, 1.0469
8.58, (100.684,194.327), 12.5345, 100.0, 11.934503064415413, 6.84, 6.84, 0.0694, 0.4952, 24.7579, 3.4707, 3.4707
10.62, (102.66,194.63), 14.5745, 100.0, 14.2744857347333, 8.88, 8.88, 0.0896, 0.4919, 24.5956, 4.4786, 4.4786
16.74, (104.596,195.128), 20.6945, 100.0, 20.694465912054135, 15.6, 15.6, 0.144, 0.4788, 23.9405, 7.2007, 7.2007
26.82, (106.443,195.889), 30.7745, 100.0, 30.774451522581533, 26.04, 26.04, 0.2256, 0.4462, 22.3107, 11.2797, 11.2797
30.42, (107.983,196.82), 34.3744, 100.0, 35.394432505835056, 32.52, 32.52, 0.2608, 0.4266, 21.3297, 13.0401, 13.0401
26.04, (109.773,197.708), 29.9944, 100.0, 29.15441742076295, 24.54, 24.54, 0.2129, 0.4524, 22.6207, 10.6445, 10.6445
34.92, (111.488,198.733), 38.8744, 100.0, 38.87440058628915, 33.72, 33.72, 0.2862, 0.41, 20.4988, 14.3108, 14.3108
42.54, (112.868,199.886), 46.4944, 100.0, 47.574382498881185, 42.96, 42.96, 0.3449, 0.362, 18.0983, 17.2468, 17.2468
32.58, (114.447,201.108), 36.5344, 100.0, 36.83436865312515, 33.96, 33.96, 0.2714, 0.4199, 20.9952, 13.572, 13.572
29.04, (116.2,202.069), 32.9944, 100.0, 32.634352474741924, 27.6, 27.6, 0.24, 0.4387, 21.9328, 11.9979, 11.9979
33, (117.873,203.163), 36.9543, 100.0, 37.31433702867328, 34.44, 34.44, 0.2749, 0.4176, 20.8808, 13.7474, 13.7474
30.66, (119.44,204.046), 34.6143, 100.0, 33.894318868351384, 28.74, 28.74, 0.2495, 0.4333, 21.6637, 12.4773, 12.4773
33.54, (121.09,205.175), 37.4943, 100.0, 38.154299884284335, 34.98, 34.98, 0.281, 0.4135, 20.677, 14.0521, 14.0521
23.58, (122.843,206.134), 27.5343, 100.0, 28.254281372707084, 25.32, 25.32, 0.2058, 0.4557, 22.7851, 10.2879, 10.2879
20.4, (124.685,206.911), 24.3543, 100.0, 24.714259812972948, 21.78, 21.78, 0.1772, 0.4675, 23.3768, 8.8614, 8.8614
18.42, (126.406,207.437), 22.3742, 100.0, 21.534244759170807, 16.56, 16.56, 0.151, 0.4766, 23.8324, 7.5509, 7.5509
21.72, (128.255,208.194), 25.6742, 100.0, 26.3342294145016, 23.46, 23.46, 0.1904, 0.4623, 23.117, 9.5187, 9.5187
11.52, (130.168,208.77), 15.4742, 100.0, 15.774213914543592, 13.26, 13.26, 0.1024, 0.4894, 24.4699, 5.1209, 5.1209
16.44, (132.122,209.188), 20.3942, 100.0, 19.97419590114276, 14.94, 14.94, 0.138, 0.4806, 24.0291, 6.8993, 6.8993
25.56, (133.989,209.9), 29.5142, 100.0, 29.154173692654577, 24, 24, 0.2129, 0.4524, 22.6207, 10.6445, 10.6445
34.02, (135.551,210.793), 37.9742, 100.0, 37.25416175679267, 32.28, 32.28, 0.2745, 0.4179, 20.8952, 13.7256, 13.7256
43.26, (137.115,212.035), 47.2141, 100.0, 46.43414555799522, 41.7, 41.7, 0.3377, 0.3688, 18.4378, 16.8833, 16.8833
52.02, (138.456,213.516), 55.9741, 100.0, 55.974130574400796, 50.94, 50.94, 0.3941, 0.3077, 15.3847, 19.7056, 19.7056
55.08, (139.46,215.01), 59.0341, 100.0, 60.174118737435116, 57.06, 57.06, 0.4156, 0.278, 13.9001, 20.7795, 20.7795
45.06, (140.732,216.549), 49.0141, 100.0, 49.73409938781817, 46.92, 46.92, 0.3583, 0.3487, 17.4354, 17.9167, 17.9167
50.82, (142.111,217.996), 54.7741, 100.0, 54.41408019339202, 49.74, 49.74, 0.3856, 0.3183, 15.9154, 19.2795, 19.2795
61.14, (143.222,219.656), 65.0941, 100.0, 64.7940649130026, 59.76, 59.76, 0.4366, 0.2436, 12.1813, 21.8316, 21.8316
63.66, (144.076,221.24), 67.614, 100.0, 66.53404948597188, 61.5, 61.5, 0.4438, 0.2303, 11.5127, 22.1914, 22.1914
66, (144.854,223.081), 69.954, 100.0, 70.67403390038585, 67.8, 67.8, 0.4593, 0.1976, 9.8806, 22.9646, 22.9646
55.8, (145.824,224.827), 59.754, 100.0, 60.17401682569304, 57.3, 57.3, 0.4156, 0.278, 13.9001, 20.7795, 20.7795
59.16, (146.963,226.47), 63.114, 100.0, 62.75400400225379, 57.72, 57.72, 0.4277, 0.259, 12.9507, 21.3841, 21.3841
69.06, (147.749,228.087), 73.014, 100.0, 72.29399411338603, 67.2, 67.2, 0.4647, 0.1845, 9.2275, 23.2348, 23.2348
66.66, (148.426,229.968), 70.614, 100.0, 71.33397598452643, 68.1, 68.1, 0.4615, 0.1923, 9.6154, 23.0769, 23.0769
66, (149.309,231.762), 69.954, 100.0, 69.29396283986607, 64.26, 64.26, 0.4544, 0.2086, 10.4308, 22.72, 22.72
76.02, (149.957,233.651), 79.9739, 100.0, 79.6139440030066, 74.94, 74.94, 0.4844, 0.1238, 6.1919, 24.2211, 24.2211
85.74, (150.24,235.426), 89.6939, 100.0, 88.85393284544963, 84.18, 84.18, 0.498, 0.0444, 2.2224, 24.901, 24.901
95.88, (150.21,237.423), 99.8339, 100.0, 99.47391525132751, 94.38, 94.38, 0.4977, -0.0481, -2.4048, 24.8841, 24.8841
105.9, (149.874,239.19), 109.8539, 100.0, 109.01389837646182, 103.98, 103.98, 0.4828, -0.1299, -6.4958, 24.1414, 24.1414
115.92, (149.168,241.058), 119.8739, 100.0, 119.21388164692002, 114.18, 114.18, 0.4522, -0.2134, -10.6682, 22.6095, 22.6095
126.24, (148.135,242.767), 130.1939, 100.0, 129.89386432001396, 124.92, 124.92, 0.4048, -0.2935, -14.6734, 20.2408, 20.2408
136.32, (146.953,244.122), 140.2738, 100.0, 139.2538492808016, 134.16, 134.16, 0.3517, -0.3554, -17.77, 17.5849, 17.5849
146.1, (145.405,245.384), 150.0538, 100.0, 149.3338383998837, 144.3, 144.3, 0.2841, -0.4115, -20.5735, 14.2033, 14.2033
146.82, (143.693,246.417), 150.7738, 100.0, 151.07381635185894, 148.2, 148.2, 0.2714, -0.4199, -20.9952, 13.572, 13.572
147.24, (142.067,247.58), 151.1938, 100.0, 150.53380226194298, 145.38, 145.38, 0.2754, -0.4173, -20.8664, 13.7693, 13.7693
156.96, (140.3,248.511), 160.9138, 100.0, 160.9137895112163, 155.82, 155.82, 0.1957, -0.4601, -23.0058, 9.7843, 9.7843
157.98, (138.607,249.12), 161.9338, 100.0, 162.65377721182017, 159.84, 159.84, 0.1816, -0.4658, -23.2923, 9.0813, 9.0813
147.9, (136.826,250.025), 151.8538, 100.0, 152.57375730242455, 149.4, 149.4, 0.2604, -0.4269, -21.3433, 13.0178, 13.0178
147.96, (135.181,251.162), 151.9137, 100.0, 151.19374078271724, 146.22, 146.22, 0.2706, -0.4205, -21.0236, 13.528, 13.528
155.28, (133.417,252.101), 159.2337, 100.0, 158.9337190854118, 154.14, 154.14, 0.2115, -0.4531, -22.654, 10.5734, 10.5734
165.36, (131.532,252.763), 169.3137, 100.0, 169.31370037643202, 164.28, 164.28, 0.1264, -0.4838, -24.1883, 6.3186, 6.3186
175.8, (129.56,253.078), 179.7537, 100.0, 179.39368988285324, 174.6, 174.6, 0.0398, -0.4984, -24.9209, 1.9876, 1.9876
167.16, (127.779,253.327), 171.1137, 100.0, 171.8336743995993, 168.96, 168.96, 0.105, -0.4889, -24.4428, 5.249, 5.249
157.74, (125.871,253.92), 161.6937, 100.0, 162.0536538547578, 159.3, 159.3, 0.1865, -0.4639, -23.1959, 9.3247, 9.3247
157.44, (124.055,254.756), 161.3936, 100.0, 161.0936396956146, 156.36, 156.36, 0.1942, -0.4607, -23.0364, 9.712, 9.712
158.64, (122.358,255.355), 162.5936, 100.0, 163.31362588458833, 160.38, 160.38, 0.1762, -0.4679, -23.3953, 8.8124, 8.8124
148.8, (120.564,256.233), 152.7536, 100.0, 153.47361198132668, 150.72, 150.72, 0.2536, -0.4309, -21.5452, 12.6809, 12.6809
138.72, (118.95,257.409), 142.6736, 100.0, 143.0935949000928, 140.22, 140.22, 0.3271, -0.3782, -18.9078, 16.3553, 16.3553
128.76, (117.569,258.852), 132.7136, 100.0, 133.13357765838282, 129.96, 129.96, 0.3876, -0.3159, -15.794, 19.3791, 19.3791
119.16, (116.459,260.513), 123.1136, 100.0, 123.11356137223106, 120.12, 120.12, 0.4366, -0.2436, -12.1813, 21.8316, 21.8316
109.74, (115.71,262.148), 113.6935, 100.0, 114.71354700815998, 111.84, 111.84, 0.4675, -0.1772, -8.8614, 23.3768, 23.3768
106.92, (115.155,264.068), 110.8735, 100.0, 110.09353433001917, 105.18, 105.18, 0.4803, -0.139, -6.9496, 24.0146, 24.0146
98.7, (114.693,266.012), 102.6535, 100.0, 102.65351873189371, 99.84, 99.84, 0.4942, -0.0756, -3.7815, 24.7123, 24.7123
106.26, (114.344,267.775), 110.2135, 100.0, 109.19350953427633, 104.52, 104.52, 0.4824, -0.1314, -6.5716, 24.1208, 24.1208
106.44, (113.7,269.668), 110.3935, 100.0, 111.05349546564597, 108.24, 108.24, 0.4779, -0.147, -7.351, 23.8948, 23.8948
96.42, (113.303,271.625), 100.3735, 100.0, 100.7934804258579, 97.98, 97.98, 0.4964, -0.0595, -2.9774, 24.8221, 24.8221
94.92, (113.193,273.622), 98.8735, 100.0, 98.51346192396184, 93.42, 93.42, 0.4984, -0.0398, -1.9876, 24.9209, 24.9209
104.52, (112.888,275.394), 108.4734, 100.0, 107.3934486498751, 103.08, 103.08, 0.4863, -0.1162, -5.8107, 24.3153, 24.3153
114.48, (112.231,277.28), 118.4334, 100.0, 117.7134289839206, 112.98, 112.98, 0.4576, -0.2015, -10.0727, 22.881, 22.881
124.26, (111.252,279.021), 128.2134, 100.0, 127.85341272615648, 122.76, 122.76, 0.415, -0.2789, -13.9436, 20.7503, 20.7503
124.98, (110.046,280.616), 128.9334, 100.0, 129.29339396237407, 126.06, 126.06, 0.4079, -0.2892, -14.4607, 20.3933, 20.3933
115.44, (109.05,282.348), 119.3934, 100.0, 119.75338024224115, 116.52, 116.52, 0.4502, -0.2176, -10.8808, 22.508, 22.508
105.6, (108.419,284.031), 109.5534, 100.0, 110.33336102286451, 107.4, 107.4, 0.4797, -0.141, -7.0502, 23.9853, 23.9853
103.2, (108.004,285.987), 107.1533, 100.0, 106.13333987505945, 101.16, 101.16, 0.4887, -0.1055, -5.2746, 24.4372, 24.4372
112.68, (107.389,287.887), 116.6333, 100.0, 116.33332457685917, 111.66, 111.66, 0.4623, -0.1904, -9.5187, 23.117, 23.117
122.82, (106.457,289.654), 126.7733, 100.0, 126.41331156267812, 121.38, 121.38, 0.4219, -0.2684, -13.4178, 21.0942, 21.0942
132.42, (105.229,291.229), 136.3733, 100.0, 136.3732958245808, 131.28, 131.28, 0.3691, -0.3373, -16.864, 18.4555, 18.4555
141.18, (103.912,292.454), 145.1333, 100.0, 144.71328510243305, 139.38, 139.38, 0.3163, -0.3873, -19.3626, 15.8143, 15.8143
150.06, (102.256,293.572), 154.0133, 100.0, 153.6532693323031, 148.62, 148.62, 0.2523, -0.4317, -21.5849, 12.6132, 12.6132
156.24, (100.446,294.418), 160.1933, 100.0, 160.5532521195363, 157.44, 157.44, 0.1986, -0.4589, -22.9439, 9.9287, 9.9287
148.02, (98.868,295.28), 151.9732, 100.0, 151.61324171660556, 148.02, 148.02, 0.2675, -0.4224, -21.1222, 13.3736, 13.3736
157.56, (97.094,296.198), 161.5132, 100.0, 161.09322600507318, 156.42, 156.42, 0.1942, -0.4607, -23.0364, 9.712, 9.712
167.16, (95.195,296.819), 171.1132, 100.0, 170.75320856218136, 165.66, 165.66, 0.1142, -0.4868, -24.3395, 5.7088, 5.7088
176.34, (93.221,297.12), 180.2932, 100.0, 179.93319591275863, 174.78, 174.78, 0.0351, -0.4988, -24.9385, 1.7526, 1.7526
185.34, (91.422,297.114), 189.2932, 100.0, 188.21317837966694, -176.88, -176.88, -0.0371, -0.4986, -24.9309, -1.8571, -1.8571
194.4, (89.451,296.789), 198.3532, 100.0, 197.69316271130495, -167.34, -167.34, -0.1188, -0.4857, -24.2846, -5.9379, -5.9379
203.34, (87.744,296.222), 207.2931, 100.0, 206.15314799738042, -159, -159, -0.1889, -0.4629, -23.1468, -9.446, -9.446
206.34, (85.931,295.38), 210.2931, 100.0, 209.5731304287201, -155.46, -155.46, -0.2162, -0.4508, -22.542, -10.81, -10.81
210.9, (84.21,294.363), 214.8531, 100.0, 215.27311542986305, -147.9, -147.9, -0.2599, -0.4271, -21.3569, -12.9954, -12.9954
200.46, (82.408,293.502), 204.4131, 100.0, 204.77309696119005, -158.04, -158.04, -0.1777, -0.4674, -23.3675, -8.8858, -8.8858
190.62, (80.482,292.972), 194.5731, 100.0, 194.933081167769, -167.82, -167.82, -0.0952, -0.4908, -24.5423, -4.7617, -4.7617
190.5, (78.699,292.724), 194.4531, 100.0, 193.73307083430407, -171.3, -171.3, -0.0849, -0.4927, -24.6367, -4.2466, -4.2466
200.64, (76.775,292.19), 204.5931, 100.0, 204.17305238968598, -160.8, -160.8, -0.1728, -0.4692, -23.4593, -8.6406, -8.6406
201.54, (74.941,291.394), 205.493, 100.0, 205.49303091608508, -157.44, -157.44, -0.1836, -0.4651, -23.254, -9.1788, -9.1788
191.28, (73.215,290.892), 195.233, 100.0, 195.95301429919854, -166.86, -166.86, -0.104, -0.4891, -24.4537, -5.1978, -5.1978
190.38, (71.237,290.598), 194.333, 100.0, 193.97299599752301, -171, -171, -0.087, -0.4924, -24.6187, -4.3498, -4.3498
198.96, (69.307,290.078), 202.913, 100.0, 202.9129804788182, -162.42, -162.42, -0.1625, -0.4729, -23.6436, -8.1227, -8.1227
209.1, (67.664,289.349), 213.053, 100.0, 211.97296154132167, -153.12, -153.12, -0.2349, -0.4414, -22.0696, -11.7445, -11.7445
212.4, (65.983,288.267), 216.3529, 100.0, 216.65294444011283, -146.22, -146.22, -0.2701, -0.4208, -21.0378, -13.506, -13.506
202.38, (64.203,287.361), 206.3329, 100.0, 206.33292664332347, -156.6, -156.6, -0.1904, -0.4623, -23.117, -9.5187, -9.5187
210.66, (62.582,286.584), 214.6129, 100.0, 213.83291455118663, -151.26, -151.26, -0.2491, -0.4335, -21.6768, -12.4546, -12.4546
212.88, (60.854,285.577), 216.8329, 100.0, 216.11289788499786, -148.92, -148.92, -0.2661, -0.4233, -21.1641, -13.3071, -13.3071
216.18, (59.233,284.406), 220.1329, 100.0, 220.1328789598404, -144.9, -144.9, -0.2952, -0.4036, -20.1792, -14.7581, -14.7581
226.26, (57.881,283.221), 230.2129, 100.0, 229.4328609818686, -135.6, -135.6, -0.3565, -0.3506, -17.529, -17.8251, -17.8251
221.94, (56.498,281.778), 225.8928, 100.0, 226.67284702222625, -136.2, -136.2, -0.3392, -0.3673, -18.3669, -16.9604, -16.9604
212.7, (54.912,280.564), 216.6528, 100.0, 217.01283069633638, -145.86, -145.86, -0.2728, -0.419, -20.9525, -13.6379, -13.6379
202.26, (53.134,279.653), 206.2128, 100.0, 206.21281769408978, -156.6, -156.6, -0.1894, -0.4627, -23.1369, -9.4703, -9.4703
192.66, (51.417,279.119), 196.6128, 100.0, 197.33279977954436, -165.48, -165.48, -0.1157, -0.4864, -24.3214, -5.7852, -5.7852
193.02, (49.455,278.736), 196.9728, 100.0, 197.6327834751142, -167.1, -167.1, -0.1182, -0.4858, -24.2908, -5.9125, -5.9125
183.66, (47.477,278.459), 187.6128, 100.0, 187.61277042153722, -175.56, -175.56, -0.0319, -0.499, -24.949, -1.5959, -1.5959
173.76, (45.679,278.493), 177.7128, 100.0, 178.4327542646754, 175.8, 175.8, 0.0481, -0.4977, -24.8841, 2.4048, 2.4048
173.16, (43.705,278.806), 177.1127, 100.0, 176.39273976173902, 171, 171, 0.0658, -0.4957, -24.7827, 3.2891, 3.2891
174.6, (41.71,278.939), 178.5527, 100.0, 178.91272863232268, 176.1, 176.1, 0.0439, -0.4981, -24.9033, 2.1963, 2.1963
164.94, (39.747,279.31), 168.8927, 100.0, 168.89270339128893, 165.78, 165.78, 0.1299, -0.4828, -24.1414, 6.4958, 6.4958
154.68, (38.062,279.937), 158.6327, 100.0, 159.29268717840222, 156.42, 156.42, 0.2086, -0.4544, -22.72, 10.4308, 10.4308
160.02, (36.245,280.77), 163.9727, 100.0, 163.19267495668007, 158.16, 158.16, 0.1772, -0.4675, -23.3768, 8.8614, 8.8614
170.1, (34.316,281.287), 174.0527, 100.0, 173.6926602054586, 168.66, 168.66, 0.0891, -0.492, -24.6002, 4.4529, 4.4529
160.74, (32.382,281.785), 164.6926, 100.0, 165.05264355355015, 161.82, 161.82, 0.162, -0.473, -23.6521, 8.0979, 8.0979
151.26, (30.558,282.599), 155.2126, 100.0, 155.21261981366106, 152.4, 152.4, 0.2404, -0.4384, -21.9203, 12.0209, 12.0209
145.74, (29.056,283.59), 149.6926, 100.0, 148.8526076536276, 143.76, 143.76, 0.2875, -0.4091, -20.4537, 14.3751, 14.3751
155.82, (27.319,284.575), 159.7726, 100.0, 159.0525899648689, 154.08, 154.08, 0.2105, -0.4535, -22.6761, 10.5259, 10.5259
165.84, (25.431,285.226), 169.7926, 100.0, 169.37257077160274, 164.7, 164.7, 0.1259, -0.4839, -24.1949, 6.2933, 6.2933
175.92, (23.457,285.531), 179.8726, 100.0, 179.87255815191526, 174.78, 174.78, 0.0356, -0.4987, -24.9366, 1.7787, 1.7787
185.94, (21.659,285.5), 189.8925, 100.0, 189.17253983742626, -175.86, -175.86, -0.0455, -0.4979, -24.8963, -2.2745, -2.2745
196.2, (19.697,285.126), 200.1525, 100.0, 199.49252191358644, -165.6, -165.6, -0.134, -0.4817, -24.0861, -6.6978, -6.6978
206.34, (17.833,284.408), 210.2925, 100.0, 209.5125100003459, -155.58, -155.58, -0.2157, -0.4511, -22.5533, -10.7864, -10.7864
216.42, (16.127,283.37), 220.3725, 100.0, 220.01249402275488, -145.02, -145.02, -0.2943, -0.4042, -20.21, -14.7158, -14.7158
226.2, (14.633,282.043), 230.1525, 100.0, 230.15247633078786, -134.88, -134.88, -0.3609, -0.3461, -17.3036, -18.044, -18.044
231.48, (13.5,280.647), 235.4325, 100.0, 236.51245847203788, -126.6, -126.6, -0.397, -0.304, -15.1983, -19.8498, -19.8498
238.74, (12.322,279.033), 242.6924, 100.0, 242.27243748160865, -122.76, -122.76, -0.4255, -0.2626, -13.1294, -21.2749, -21.2749
237.06, (11.332,277.296), 241.0124, 100.0, 241.37242065257809, -121.44, -121.44, -0.4213, -0.2692, -13.4619, -21.066, -21.066
231.3, (10.157,275.678), 235.2524, 100.0, 235.61240273029304, -127.26, -127.26, -0.3922, -0.3102, -15.5082, -19.6086, -19.6086
222, (8.923,274.369), 225.9524, 100.0, 227.09239704638645, -136.02, -136.02, -0.3419, -0.3648, -18.2421, -17.0946, -17.0946
212.04, (7.334,273.16), 215.9924, 100.0, 216.7123813691331, -146.58, -146.58, -0.2706, -0.4205, -21.0236, -13.528, -13.528
212.34, (5.598,272.167), 216.2924, 100.0, 215.93236589429952, -149.1, -149.1, -0.2648, -0.4241, -21.2058, -13.2406, -13.2406
212.76, (3.962,271.018), 216.7124, 100.0, 217.01235203198038, -145.86, -145.86, -0.2728, -0.419, -20.9525, -13.6379, -13.6379
202.92, (2.19,270.096), 206.8723, 100.0, 206.8723313523551, -155.94, -155.94, -0.1947, -0.4605, -23.0262, -9.7361, -9.7361
192.78, (0.481,269.539), 196.7323, 100.0, 197.87231085126027, -164.94, -164.94, -0.1203, -0.4853, -24.2658, -6.0142, -5.5302
183.9, (-1.496,269.255), 187.8523, 100.0, 187.85229582697906, -175.32, -175.32, -0.034, -0.4988, -24.9421, -1.7004, -1.7004
193.62, (-3.471,268.952), 197.5723, 100.0, 197.2122799407799, -167.76, -167.76, -0.1147, -0.4867, -24.3335, -5.7343, -5.7343
202.08, (-5.383,268.373), 206.0323, 100.0, 205.31226338957765, -159.72, -159.72, -0.1821, -0.4657, -23.2828, -9.1057, -9.1057
211.8, (-7.164,267.47), 215.7522, 100.0, 215.39224497496392, -149.64, -149.64, -0.2608, -0.4266, -21.3297, -13.0401, -13.0401
204.06, (-8.913,266.505), 208.0122, 100.0, 208.01223029784396, -154.74, -154.74, -0.2038, -0.4566, -22.828, -10.1923, -10.1923
194.04, (-10.614,265.92), 197.9922, 100.0, 198.7122142498948, -164.1, -164.1, -0.1274, -0.4835, -24.175, -6.3693, -6.3693
201.12, (-12.532,265.363), 205.0722, 100.0, 204.41220134129665, -160.62, -160.62, -0.1748, -0.4685, -23.4229, -8.7388, -8.7388
210.54, (-14.328,264.488), 214.4922, 100.0, 214.49218067615237, -150.48, -150.48, -0.2541, -0.4306, -21.5319, -12.7035, -12.7035
220.56, (-15.79,263.441), 224.5122, 100.0, 223.792161220372, -141.24, -141.24, -0.3203, -0.3839, -19.1959, -16.0161, -16.0161
216.48, (-17.301,262.133), 220.4321, 100.0, 221.45214308482826, -141.36, -141.36, -0.3044, -0.3967, -19.8338, -15.219, -15.219
208.02, (-18.999,261.08), 211.9721, 100.0, 211.25212474302668, -151.92, -151.92, -0.2293, -0.4443, -22.2154, -11.4662, -11.4662
217.62, (-20.675,259.994), 221.5721, 100.0, 221.57210819072674, -143.46, -143.46, -0.3052, -0.396, -19.8019, -15.2605, -15.2605
227.22, (-22.154,258.652), 231.1721, 100.0, 230.87209302066276, -134.22, -134.22, -0.3652, -0.3415, -17.0755, -18.26, -18.26
218.22, (-23.457,257.413), 222.1721, 100.0, 223.25207809556056, -139.68, -139.68, -0.3167, -0.3869, -19.346, -15.8345, -15.8345
224.82, (-24.989,256.13), 228.7721, 100.0, 228.05205986758946, -136.92, -136.92, -0.348, -0.3591, -17.9532, -17.3978, -17.3978
233.64, (-26.302,254.624), 237.592, 100.0, 237.23204800285967, -128.1, -128.1, -0.4008, -0.299, -14.9476, -20.0392, -20.0392
230.64, (-27.345,253.158), 234.592, 100.0, 235.31203149199303, -127.56, -127.56, -0.3905, -0.3122, -15.6106, -19.5271, -19.5271
231.48, (-28.673,251.663), 235.432, 100.0, 234.59201874984234, -130.5, -130.5, -0.3866, -0.3171, -15.8548, -19.3294, -19.3294
240.3, (-29.797,250.012), 244.252, 100.0, 243.89200338294685, -121.08, -121.08, -0.4328, -0.2505, -12.5227, -21.6375, -21.6375
249.6, (-30.637,248.199), 253.552, 100.0, 253.1319907184438, -112.02, -112.02, -0.4674, -0.1777, -8.8858, -23.3675, -23.3675
252.12, (-31.211,246.284), 256.072, 100.0, 256.4319759641616, -106.5, -106.5, -0.4768, -0.1505, -7.526, -23.8403, -23.8403
262.14, (-31.651,244.335), 266.092, 100.0, 265.7319637676895, -99.24, -99.24, -0.4949, -0.0715, -3.5744, -24.7432, -24.7432
271.2, (-31.774,242.542), 275.1519, 100.0, 274.0719466583615, -90.66, -90.66, -0.5, 0.001, 0.0524, -24.9999, -24.9999
269.52, (-31.808,240.543), 273.4719, 100.0, 272.75192618306886, -92.22, -92.22, -0.4999, -0.0105, -0.5236, -24.9945, -24.9945
273.42, (-31.687,238.548), 277.3719, 100.0, 277.7319051297686, -85.14, -85.14, -0.4989, 0.033, 1.6481, -24.9456, -24.9456
275.94, (-31.602,236.55), 279.8919, 100.0, 279.891889011913, -85.08, -85.08, -0.4973, 0.0517, 2.5872, -24.8658, -24.8658
286.2, (-31.258,234.786), 290.1519, 100.0, 289.1318716639365, -75.96, -75.96, -0.4826, 0.1309, 6.5463, -24.1277, -24.1277
284.52, (-30.651,232.881), 288.4719, 100.0, 288.831857918863, -74.04, -74.04, -0.4832, 0.1284, 6.4199, -24.1616, -24.1616
274.38, (-30.333,230.909), 278.3318, 100.0, 278.33183602128264, -84.36, -84.36, -0.4985, 0.0382, 1.9093, -24.927, -24.927
274.98, (-30.266,229.111), 278.9318, 100.0, 278.33182499867655, -86.76, -86.76, -0.4985, 0.0382, 1.9093, -24.927, -24.927
285.3, (-29.918,227.144), 289.2518, 100.0, 288.4718090144881, -76.26, -76.26, -0.484, 0.1254, 6.2679, -24.2015, -24.2015
295.08, (-29.231,225.268), 299.0318, 100.0, 298.61179571147346, -66.48, -66.48, -0.4544, 0.2086, 10.4308, -22.72, -22.72
296.46, (-28.288,223.505), 300.4118, 100.0, 300.8317815444502, -62.34, -62.34, -0.446, 0.2261, 11.3031, -22.2989, -22.2989
286.38, (-27.572,221.641), 290.3318, 100.0, 290.3317592264697, -72.54, -72.54, -0.4797, 0.141, 7.0502, -23.9853, -23.9853
276.54, (-27.219,219.877), 280.4917, 100.0, 281.27174373443285, -81.48, -81.48, -0.4959, 0.0637, 3.1853, -24.7963, -24.7963
266.88, (-27.153,217.881), 270.8317, 100.0, 271.1917288266671, -91.62, -91.62, -0.4994, -0.0241, -1.2038, -24.971, -24.971
260.88, (-27.428,215.902), 264.8317, 100.0, 264.41171745363846, -100.32, -100.32, -0.4931, -0.0829, -4.1434, -24.6543, -24.6543
270.84, (-27.56,213.909), 274.7917, 100.0, 274.7917021231277, -90.3, -90.3, -0.4999, 0.0073, 0.3665, -24.9973, -24.9973
280.5, (-27.375,212.12), 284.4517, 100.0, 283.67168676912877, -81.24, -81.24, -0.4928, 0.0844, 4.2208, -24.6411, -24.6411
288.9, (-26.842,210.195), 292.8517, 100.0, 293.15166874227947, -70.74, -70.74, -0.4722, 0.1644, 8.2217, -23.6094, -23.6094
278.7, (-26.372,208.254), 282.6517, 100.0, 283.0116545669903, -80.16, -80.16, -0.4938, 0.0787, 3.9367, -24.6881, -24.6881
268.62, (-26.257,206.459), 272.5716, 100.0, 273.77164319711807, -89.46, -89.46, -0.5, -0.0016, -0.0785, -24.9999, -24.9999
258.96, (-26.471,204.473), 262.9116, 100.0, 263.2716207668973, -99.66, -99.66, -0.4913, -0.0927, -4.6331, -24.5669, -24.5669
249.12, (-27.033,202.557), 253.0716, 100.0, 253.0716037534173, -109.8, -109.8, -0.4672, -0.1782, -8.9103, -23.3582, -23.3582
257.04, (-27.582,200.845), 260.9916, 100.0, 260.39159288191246, -104.58, -104.58, -0.4861, -0.1172, -5.8616, -24.3031, -24.3031
256.44, (-27.957,198.881), 260.3916, 100.0, 260.69157705139463, -102.18, -102.18, -0.4867, -0.1147, -5.7343, -24.3335, -24.3335
250.32, (-28.55,196.972), 254.2716, 100.0, 254.27156365730832, -108.6, -108.6, -0.4708, -0.1684, -8.4192, -23.5397, -23.5397
245.52, (-29.289,195.331), 249.4715, 100.0, 249.11154995877638, -115.98, -115.98, -0.4537, -0.21, -10.5021, -22.6871, -22.6871
251.64, (-29.966,193.451), 255.5915, 100.0, 255.95153478229935, -106.92, -106.92, -0.4755, -0.1545, -7.7254, -23.7764, -23.7764
241.38, (-30.768,191.622), 245.3315, 100.0, 245.7515201448189, -117.12, -117.12, -0.4407, -0.2363, -11.8138, -22.0326, -22.0326
231.78, (-31.876,189.96), 235.7315, 100.0, 235.73150748831483, -127.08, -127.08, -0.3928, -0.3093, -15.4671, -19.641, -19.641
233.16, (-33.04,188.587), 237.1115, 100.0, 236.031498218967, -129.12, -129.12, -0.3944, -0.3073, -15.364, -19.7217, -19.7217
242.04, (-34.118,186.906), 245.9915, 100.0, 245.63148245198929, -119.4, -119.4, -0.4402, -0.2372, -11.8599, -22.0078, -22.0078
251.16, (-34.906,185.07), 255.1115, 100.0, 254.6914665578753, -110.28, -110.28, -0.472, -0.1649, -8.2464, -23.6008, -23.6008
260.34, (-35.386,183.13), 264.2914, 100.0, 263.9314463431457, -100.68, -100.68, -0.4924, -0.087, -4.3498, -24.6187, -24.6187
269.46, (-35.544,181.138), 273.4114, 100.0, 273.41142994829664, -91.68, -91.68, -0.5, -0.0047, -0.2356, -24.9989, -24.9989
278.28, (-35.412,179.345), 282.2314, 100.0, 281.15141521683336, -82.8, -82.8, -0.4961, 0.0627, 3.1333, -24.8029, -24.8029
287.34, (-34.968,177.397), 291.2914, 100.0, 290.5713991874835, -73.44, -73.44, -0.4791, 0.143, 7.1506, -23.9556, -23.9556
296.46, (-34.213,175.548), 300.4114, 100.0, 300.83138282808056, -64.08, -64.08, -0.446, 0.2261, 11.3031, -22.2989, -22.2989
286.68, (-33.476,173.691), 290.6314, 100.0, 290.99136620954204, -71.88, -71.88, -0.4781, 0.1465, 7.326, -23.9025, -23.9025
291.96, (-32.871,171.787), 295.9114, 100.0, 295.5513534734319, -69.18, -69.18, -0.4649, 0.1841, 9.2031, -23.2444, -23.2444
295.32, (-32.082,169.95), 299.2713, 100.0, 298.9713340276311, -66.06, -66.06, -0.4531, 0.2115, 10.5734, -22.654, -22.654
305.28, (-31.065,168.231), 309.2313, 100.0, 309.2313233855956, -55.74, -55.74, -0.4082, 0.2888, 14.4393, -20.4085, -20.4085
296.88, (-30.119,166.701), 300.8313, 100.0, 301.55131067291325, -61.38, -61.38, -0.4431, 0.2316, 11.5824, -22.1551, -22.1551
287.4, (-29.358,164.854), 291.3513, 100.0, 291.7112915156518, -71.16, -71.16, -0.4762, 0.1525, 7.6258, -23.8086, -23.8086
277.38, (-28.935,162.902), 281.3313, 100.0, 281.33127212505985, -81.42, -81.42, -0.4959, 0.0642, 3.2112, -24.7929, -24.7929
283.62, (-28.659,161.125), 287.5713, 100.0, 286.8512569849149, -78.06, -78.06, -0.4874, 0.1116, 5.5813, -24.369, -24.369
293.64, (-28.025,159.231), 297.5912, 100.0, 296.9312457279188, -67.8, -67.8, -0.4603, 0.1952, 9.7602, -23.016, -23.016
287.88, (-27.259,157.386), 291.8312, 100.0, 292.13122872512747, -70.68, -70.68, -0.475, 0.156, 7.8001, -23.752, -23.752
297.06, (-26.5,155.538), 301.0112, 100.0, 301.0112093115181, -64.02, -64.02, -0.4453, 0.2275, 11.3731, -22.2633, -22.2633
288.96, (-25.768,153.896), 292.9112, 100.0, 293.63119468881416, -69.24, -69.24, -0.4708, 0.1684, 8.4192, -23.5397, -23.5397
279.54, (-25.27,151.961), 283.4912, 100.0, 283.8511775987638, -79.26, -79.26, -0.4926, 0.086, 4.2982, -24.6277, -24.6277
280.62, (-25.006,149.98), 284.5712, 100.0, 284.57115904213214, -80.58, -80.58, -0.4914, 0.0921, 4.6074, -24.5718, -24.5718
287.34, (-24.527,148.246), 291.2911, 100.0, 292.3111468510297, -71.34, -71.34, -0.4745, 0.1575, 7.8747, -23.7274, -23.7274
280.08, (-24.091,146.297), 284.0311, 100.0, 283.2511347357427, -81.3, -81.3, -0.4934, 0.0808, 4.0401, -24.6714, -24.6714
273.96, (-23.796,144.321), 277.9111, 100.0, 278.3311156178609, -84.84, -84.84, -0.4985, 0.0382, 1.9093, -24.927, -24.927
264.9, (-23.816,142.323), 268.8511, 100.0, 268.85109462665616, -93.96, -93.96, -0.498, -0.0444, -2.2224, -24.901, -24.901
263.34, (-24.011,140.534), 267.2911, 100.0, 267.71108318111453, -95.1, -95.1, -0.497, -0.0543, -2.7173, -24.8519, -24.8519
