Rotation, Location, Gyro Rotation, Sensor Optical Flow, Battery Level, Yaw, Pitch, Roll, Vy, Vx, AccX, AccY
0, (0.189,0), 0, 100.0, 6.316992084975936E-8, 0, 0, 0, 0.043, 2.15, 0, 0
0, (0.198,0), 360, 100.0, 359.9999898878245, 0, 0, 0, 0, 0, 0, 0
0, (0.198,0), 360, 100.0, 359.9999758432391, 0, 0, 0, 0, 0, 0, 0
0, (0.198,0), 360, 100.0, 359.9999594833899, 0, 0, 0, 0, 0, 0, 0
0, (0.198,0), 359.9999, 100.0, 359.999945486865, 0, 0, 0, 0, 0, 0, 0
0, (0.198,0), 359.9999, 100.0, 359.9999333973677, 0, 0, 0, 0, 0, 0, 0
0, (0.198,0), 359.9999, 100.0, 359.99992002404593, 0, 0, 0, 0, 0, 0, 0
0, (0.198,0), 359.9999, 100.0, 359.9999102283271, 0, 0, 0, 0, 0, 0, 0
0, (0.198,0), 359.9999, 100.0, 359.9998963695437, 0, 0, 0, 0, 0, 0, 0
7.68, (0.423,0.021), 7.6799, 100.0, 7.6798805992685315, 6.72, 6.72, 0.0179, 0.1328, 6.6399, 0.8954, 0.8954
3.18, (1.223,0.123), 3.1799, 100.0, 3.8998609945317644, 4.92, 4.92, 0.0203, 0.2973, 14.8655, 1.0134, 1.0134
6.12, (2.803,0.2), 6.1201, 100.0, 6.120131482307863, 4.98, 4.98, 0.0507, 0.4733, 23.6644, 2.5373, 2.5373
4.5, (4.583,0.446), 4.5001, 100.0, 4.920110520192731, 6, 6, 0.0429, 0.4982, 24.9079, 2.1441, 2.1441
359.82, (6.583,0.473), 359.8199, 100.0, 359.8198878384492, -0.18, -0.18, -0.0016, 0.5, 24.9999, -0.0785, -0.0785
5.94, (8.381,0.525), 5.9399, 100.0, 5.159876462544301, 4.2, 4.2, 0.045, 0.498, 24.8987, 2.2484, 2.2484
4.92, (10.362,0.795), 4.9199, 100.0, 5.279854127313197, 6.3, 6.3, 0.046, 0.4979, 24.8939, 2.3006, 2.3006
356.64, (12.16,0.815), 357.8398, 100.0, 358.49984282182703, -1.68, -1.68, -0.0236, 0.4994, 24.9722, -1.1777, -1.1777
348.84, (14.138,0.53), 350.0398, 100.0, 350.03982024457446, -11.16, -11.16, -0.0968, 0.4905, 24.5273, -4.8387, -4.8387
350.28, (16.101,0.146), 351.4798, 100.0, 351.0598065669536, -11.16, -11.16, -0.088, 0.4922, 24.6095, -4.4013, -4.4013
359.04, (17.893,-0.002), 0.2398, 100.0, 0.23979099721563474, -1.38, -1.38, -0.0084, 0.4999, 24.9965, -0.4189, -0.4189
359.04, (19.892,-0.036), 0.2398, 100.0, 0.23978033356063186, -0.96, -0.96, -0.0084, 0.4999, 24.9965, -0.4189, -0.4189
350.58, (21.685,-0.178), 352.0202, 100.0, 352.740214100731, -7.56, -7.56, -0.0756, 0.4942, 24.7123, -3.7815, -3.7815
341.22, (23.624,-0.658), 342.6602, 100.0, 342.96020309049374, -17.4, -17.4, -0.1585, 0.4742, 23.7109, -7.9243, -7.9243
331.74, (25.275,-1.371), 333.1802, 100.0, 334.2001934384232, -26.22, -26.22, -0.2289, 0.4445, 22.2274, -11.443, -11.443
328.26, (26.989,-2.4), 329.7002, 100.0, 329.700183385132, -31.74, -31.74, -0.263, 0.4252, 21.2611, -13.1516, -13.1516
328.26, (28.69,-3.452), 329.7002, 100.0, 329.7001692983731, -31.74, -31.74, -0.263, 0.4252, 21.2611, -13.1516, -13.1516
337.02, (30.277,-4.298), 338.4602, 100.0, 337.38015322086625, -25.2, -25.2, -0.2038, 0.4566, 22.828, -10.1923, -10.1923
330.84, (32.097,-5.122), 332.2801, 100.0, 333.00012946264616, -27.36, -27.36, -0.2381, 0.4397, 21.9829, -11.906, -11.906
321.78, (33.6,-6.11), 323.2201, 100.0, 324.3001124871595, -36.06, -36.06, -0.3019, 0.3986, 19.9291, -15.0941, -15.0941
317.88, (35.103,-7.43), 319.3201, 100.0, 319.3201010766423, -42.12, -42.12, -0.3353, 0.3709, 18.5435, -16.7671, -16.7671
321.6, (36.603,-8.752), 323.0401, 100.0, 322.62008608640315, -39.9, -39.9, -0.3134, 0.3896, 19.478, -15.6719, -15.6719
325.74, (38.089,-9.766), 327.1801, 100.0, 327.900074935864, -32.4, -32.4, -0.2763, 0.4168, 20.8375, -13.813, -13.813
317.94, (39.641,-11.024), 319.3801, 100.0, 319.3800542851218, -42.06, -42.06, -0.335, 0.3712, 18.5611, -16.7477, -16.7477
327.18, (41.221,-12.245), 328.62, 100.0, 328.620039928892, -34.14, -34.14, -0.271, 0.4202, 21.0094, -13.55, -13.55
324.72, (42.738,-13.214), 326.16, 100.0, 326.94002224036996, -33.78, -33.78, -0.2832, 0.4121, 20.6032, -14.1602, -14.1602
319.86, (44.277,-14.489), 321.3, 100.0, 320.9400080829228, -41.58, -41.58, -0.3247, 0.3802, 19.0101, -16.2362, -16.2362
327.96, (45.746,-15.527), 329.4, 100.0, 329.39999396804495, -32.04, -32.04, -0.2653, 0.4238, 21.1919, -13.2628, -13.2628
320.52, (47.389,-16.663), 321.96, 100.0, 322.6199762058318, -37.8, -37.8, -0.3134, 0.3896, 19.478, -15.6719, -15.6719
324.24, (48.927,-17.94), 325.68, 100.0, 325.31996009900945, -36.9, -36.9, -0.2947, 0.4039, 20.1946, -14.737, -14.737
333.78, (50.465,-18.872), 335.2199, 100.0, 334.19994228648136, -28.02, -28.02, -0.2289, 0.4445, 22.2274, -11.443, -11.443
343.14, (52.319,-19.618), 344.5799, 100.0, 343.85992978989333, -18.66, -18.66, -0.151, 0.4766, 23.8324, -7.5509, -7.5509
347.88, (54.264,-20.078), 349.3199, 100.0, 349.3199142327338, -12.12, -12.12, -0.105, 0.4889, 24.4428, -5.249, -5.249
347.88, (56.22,-20.498), 349.3199, 100.0, 349.31989219105833, -12.12, -12.12, -0.105, 0.4889, 24.4428, -5.249, -5.249
352.32, (57.985,-20.848), 353.7599, 100.0, 353.0398783371519, -9.6, -9.6, -0.073, 0.4946, 24.7318, -3.6521, -3.6521
1.68, (59.98,-20.952), 3.1199, 100.0, 2.69986243537259, 0.18, 0.18, 0.011, 0.4999, 24.994, 0.5497, 0.5497
8.34, (61.768,-20.761), 9.7798, 100.0, 9.779846756458998, 8.34, 8.34, 0.0725, 0.4947, 24.7356, 3.6262, 3.6262
4.08, (63.751,-20.502), 5.5198, 100.0, 5.879829184893293, 5.16, 5.16, 0.0387, 0.4985, 24.925, 1.9354, 1.9354
1.86, (65.75,-20.464), 1.7402, 100.0, 1.7401689560491609, 0.84, 0.84, 0.0162, 0.4997, 24.9868, 0.8114, 0.8114
10.5, (67.536,-20.248), 10.3802, 100.0, 10.38015840280739, 10.14, 10.14, 0.0911, 0.4916, 24.5814, 4.5559, 4.5559
19.44, (69.473,-19.761), 19.3201, 100.0, 18.660141298750705, 17.7, 17.7, 0.161, 0.4734, 23.669, 8.0484, 8.0484
20.52, (71.347,-19.062), 20.4001, 100.0, 20.400124512309898, 20.52, 20.52, 0.1753, 0.4683, 23.4137, 8.7634, 8.7634
20.52, (73.22,-18.361), 20.4001, 100.0, 20.400108892213964, 20.52, 20.52, 0.1753, 0.4683, 23.4137, 8.7634, 8.7634
20.52, (74.906,-17.73), 20.4001, 100.0, 20.400097192600633, 20.52, 20.52, 0.1753, 0.4683, 23.4137, 8.7634, 8.7634
20.52, (76.779,-17.029), 20.4001, 100.0, 20.40008026479092, 20.52, 20.52, 0.1753, 0.4683, 23.4137, 8.7634, 8.7634
20.52, (78.652,-16.328), 20.4001, 100.0, 20.400068097838425, 20.52, 20.52, 0.1753, 0.4683, 23.4137, 8.7634, 8.7634
20.52, (80.338,-15.697), 20.4001, 100.0, 20.400052468416554, 20.52, 20.52, 0.1753, 0.4683, 23.4137, 8.7634, 8.7634
15.84, (82.224,-15.034), 15.72, 100.0, 15.720036810895065, 17.16, 17.16, 0.1365, 0.481, 24.0507, 6.8238, 6.8238
10.2, (84.182,-14.632), 10.08, 100.0, 10.080019452276892, 10.2, 10.2, 0.0885, 0.4921, 24.6049, 4.4271, 4.4271
10.2, (85.953,-14.313), 10.08, 100.0, 10.080001077225077, 10.2, 10.2, 0.0885, 0.4921, 24.6049, 4.4271, 4.4271
10.2, (87.922,-13.959), 10.08, 100.0, 10.079984513575104, 10.2, 10.2, 0.0885, 0.4921, 24.6049, 4.4271, 4.4271
10.2, (89.89,-13.605), 10.08, 100.0, 10.079971281150248, 10.2, 10.2, 0.0885, 0.4921, 24.6049, 4.4271, 4.4271
10.2, (91.859,-13.251), 10.08, 100.0, 10.079958317488494, 10.2, 10.2, 0.0885, 0.4921, 24.6049, 4.4271, 4.4271
18.36, (93.798,-12.773), 18.2399, 100.0, 18.239944133696817, 17.22, 17.22, 0.1575, 0.4745, 23.7274, 7.8747, 7.8747
24.36, (95.479,-12.131), 24.2399, 100.0, 23.519931504974828, 22.56, 22.56, 0.2005, 0.458, 22.9021, 10.0247, 10.0247
29.88, (97.234,-11.174), 29.7599, 100.0, 30.179921469115484, 30.3, 30.3, 0.2523, 0.4317, 21.5849, 12.6132, 12.6132
20.22, (98.865,-10.416), 20.0999, 100.0, 20.519910418536725, 21.66, 21.66, 0.1762, 0.4679, 23.3953, 8.8124, 8.8124
30.12, (100.678,-9.58), 29.9999, 100.0, 29.219888443863848, 28.68, 28.68, 0.245, 0.4359, 21.7932, 12.2498, 12.2498
30.06, (102.402,-8.566), 29.9399, 100.0, 30.359877955445707, 30.48, 30.48, 0.2536, 0.4309, 21.5452, 12.6809, 12.6809
20.34, (104.217,-7.732), 20.2199, 100.0, 20.219862489875613, 21.06, 21.06, 0.1738, 0.4688, 23.4412, 8.6898, 8.6898
19.26, (105.905,-7.106), 19.1398, 100.0, 20.219846844359896, 20.34, 20.34, 0.1738, 0.4688, 23.4412, 8.6898, 8.6898
10.2, (107.839,-6.609), 10.0798, 100.0, 10.079825714199414, 10.56, 10.56, 0.0885, 0.4921, 24.6049, 4.4271, 4.4271
15.84, (109.796,-6.202), 15.7198, 100.0, 15.299807176957593, 14.34, 14.34, 0.1329, 0.482, 24.1001, 6.6473, 6.6473
20.46, (111.682,-5.538), 20.3398, 100.0, 20.339792968519195, 20.46, 20.46, 0.1748, 0.4685, 23.4229, 8.7388, 8.7388
20.46, (113.368,-4.908), 20.3398, 100.0, 20.339770996192954, 20.46, 20.46, 0.1748, 0.4685, 23.4229, 8.7388, 8.7388
13.8, (115.264,-4.274), 13.6798, 100.0, 14.399753250986, 15.72, 15.72, 0.1254, 0.484, 24.2015, 6.2679, 6.2679
10.26, (117.227,-3.895), 10.1397, 100.0, 10.139736761308177, 10.26, 10.26, 0.0891, 0.492, 24.6002, 4.4529, 4.4529
10.26, (118.998,-3.574), 10.1397, 100.0, 10.139726322950587, 10.26, 10.26, 0.0891, 0.492, 24.6002, 4.4529, 4.4529
14.64, (120.96,-3.189), 14.5197, 100.0, 13.799705298447073, 12.84, 12.84, 0.1203, 0.4853, 24.2658, 6.0142, 6.0142
21.3, (122.852,-2.545), 21.1797, 100.0, 20.819688746256492, 20.58, 20.58, 0.1787, 0.467, 23.3489, 8.9348, 8.9348
30.78, (124.467,-1.755), 30.6597, 100.0, 29.9396786312839, 28.98, 28.98, 0.2505, 0.4328, 21.6375, 12.5227, 12.5227
21.18, (126.26,-0.874), 21.0597, 100.0, 21.0596612508973, 22.5, 22.5, 0.1806, 0.4662, 23.3112, 9.0325, 9.0325
28.08, (127.911,-0.162), 27.9597, 100.0, 27.23965328849143, 26.22, 26.22, 0.2298, 0.4441, 22.2034, 11.4895, 11.4895
23.58, (129.676,0.777), 23.4596, 100.0, 24.239641380461514, 25.5, 25.5, 0.2062, 0.4555, 22.7743, 10.3117, 10.3117
14.1, (131.565,1.426), 13.9796, 100.0, 14.279625371224938, 15.48, 15.48, 0.1243, 0.4843, 24.2146, 6.2172, 6.2172
8.88, (133.333,1.765), 8.7596, 100.0, 9.479607234806878, 10.32, 10.32, 0.0834, 0.493, 24.6499, 4.1692, 4.1692
360, (135.326,1.903), 359.4004, 100.0, 359.7604019255848, 0.3, 0.3, 0.0031, 0.5, 24.9995, 0.1571, 0.1571
350.76, (137.315,1.725), 350.1604, 100.0, 350.16038608239444, -8.58, -8.58, -0.0803, 0.4935, 24.6756, -4.0143, -4.0143
350.76, (139.289,1.404), 350.1604, 100.0, 350.16036792243625, -9.24, -9.24, -0.0803, 0.4935, 24.6756, -4.0143, -4.0143
344.04, (141.053,1.052), 343.4403, 100.0, 344.4603473353623, -13.86, -13.86, -0.1289, 0.4831, 24.1549, -6.4452, -6.4452
336.06, (142.937,0.384), 335.4603, 100.0, 336.12033406692296, -22.14, -22.14, -0.1976, 0.4593, 22.9646, -9.8806, -9.8806
330.42, (144.702,-0.554), 329.8203, 100.0, 329.8203175663178, -29.58, -29.58, -0.2468, 0.4348, 21.7417, -12.341, -12.341
324.96, (146.247,-1.476), 324.3603, 100.0, 325.4403035910665, -32.88, -32.88, -0.2793, 0.4147, 20.7357, -13.9653, -13.9653
324.06, (147.827,-2.701), 323.4603, 100.0, 322.8002907817478, -37.74, -37.74, -0.2981, 0.4014, 20.0704, -14.9056, -14.9056
329.88, (149.526,-3.754), 329.2803, 100.0, 329.28027000557813, -29.7, -29.7, -0.2509, 0.4325, 21.6244, -12.5453, -12.5453
320.28, (150.991,-4.797), 319.6803, 100.0, 319.6802608035516, -38.64, -38.64, -0.3195, 0.3846, 19.2294, -15.9759, -15.9759
322.02, (152.531,-6.072), 321.4202, 100.0, 320.7002421302527, -39.72, -39.72, -0.3126, 0.3902, 19.5108, -15.6311, -15.6311
329.82, (154.205,-7.163), 329.2202, 100.0, 329.5802250985278, -29.46, -29.46, -0.2486, 0.4338, 21.6898, -12.4319, -12.4319
320.28, (155.829,-8.325), 319.6802, 100.0, 319.6802040903709, -39.36, -39.36, -0.3195, 0.3846, 19.2294, -15.9759, -15.9759
320.28, (157.214,-9.475), 319.6802, 100.0, 319.6801862051596, -39.72, -39.72, -0.3195, 0.3846, 19.2294, -15.9759, -15.9759
326.82, (158.798,-10.693), 326.2202, 100.0, 325.8601719252511, -34.56, -34.56, -0.2763, 0.4168, 20.8375, -13.813, -13.813
327.48, (160.347,-11.61), 326.8802, 100.0, 327.54015258380645, -30.78, -30.78, -0.2639, 0.4247, 21.2335, -13.1961, -13.1961
322.86, (161.947,-12.807), 322.2601, 100.0, 321.54013481018313, -39, -39, -0.3069, 0.3948, 19.7378, -15.3434, -15.3434
330.42, (163.632,-13.881), 329.8201, 100.0, 329.8201267144715, -29.58, -29.58, -0.2468, 0.4348, 21.7417, -12.341, -12.341
338.16, (165.241,-14.684), 337.5601, 100.0, 336.84011093354843, -23.34, -23.34, -0.1918, 0.4617, 23.087, -9.5913, -9.5913
340.74, (167.125,-15.354), 340.1401, 100.0, 340.1400946719861, -19.26, -19.26, -0.1649, 0.472, 23.6008, -8.2464, -8.2464
336.06, (169,-16.049), 335.4601, 100.0, 335.8200790902426, -22.5, -22.5, -0.2, 0.4583, 22.9126, -10.0007, -10.0007
334.68, (170.78,-16.959), 334.0801, 100.0, 334.0800618576784, -26.46, -26.46, -0.2138, 0.452, 22.5983, -10.6918, -10.6918
340.74, (172.46,-17.603), 340.14, 100.0, 340.14004448735466, -19.26, -19.26, -0.1649, 0.472, 23.6008, -8.2464, -8.2464
340.74, (174.348,-18.262), 340.14, 100.0, 340.1400252131725, -19.26, -19.26, -0.1649, 0.472, 23.6008, -8.2464, -8.2464
340.74, (176.236,-18.922), 340.14, 100.0, 340.1400093106221, -19.26, -19.26, -0.1649, 0.472, 23.6008, -8.2464, -8.2464
348.48, (178.152,-19.491), 347.88, 100.0, 347.15999298535877, -13.02, -13.02, -0.106, 0.4886, 24.4317, -5.3002, -5.3002
350.76, (180.124,-19.821), 350.16, 100.0, 350.15997814960684, -9.24, -9.24, -0.0803, 0.4935, 24.6756, -4.0143, -4.0143
350.76, (182.098,-20.142), 350.16, 100.0, 350.1599661766824, -9.24, -9.24, -0.0803, 0.4935, 24.6756, -4.0143, -4.0143
350.76, (183.875,-20.431), 350.1599, 100.0, 350.15994950315684, -9.24, -9.24, -0.0803, 0.4935, 24.6756, -4.0143, -4.0143
342.9, (185.83,-20.844), 342.2999, 100.0, 343.01993288780966, -15, -15, -0.141, 0.4797, 23.9853, -7.0502, -7.0502
345.48, (187.732,-21.459), 344.8799, 100.0, 344.5199118074225, -16.26, -16.26, -0.1284, 0.4832, 24.1616, -6.4199, -6.4199
354.78, (189.701,-21.797), 354.1799, 100.0, 353.819892298644, -6.3, -6.3, -0.0486, 0.4976, 24.8815, -2.4309, -2.4309
359.4, (191.5,-21.831), 359.8801, 100.0, 0.05987876042058815, 0.3, 0.3, 0.0005, 0.5, 25, 0.0262, 0.0262
349.5, (193.488,-22.026), 349.9801, 100.0, 349.9801039108137, -9.36, -9.36, -0.0911, 0.4916, 24.5814, -4.5559, -4.5559
339.96, (195.414,-22.553), 340.4401, 100.0, 340.44008940262, -18.96, -18.96, -0.1713, 0.4697, 23.4863, -8.5669, -8.5669
339.3, (197.098,-23.189), 339.7801, 100.0, 339.78007359375596, -20.7, -20.7, -0.1767, 0.4677, 23.3861, -8.8369, -8.8369
347.4, (199.003,-23.79), 347.8801, 100.0, 347.5200573970738, -14.04, -14.04, -0.1121, 0.4873, 24.3632, -5.6068, -5.6068
356.4, (200.981,-24.071), 356.88, 100.0, 356.8800455296251, -4.68, -4.68, -0.0314, 0.499, 24.9507, -1.5698, -1.5698
6.06, (202.779,-24.033), 6.54, 100.0, 5.8200286977193345, 4.32, 4.32, 0.0465, 0.4978, 24.8915, 2.3266, 2.3266
15.54, (204.743,-23.67), 16.02, 100.0, 15.360013110050913, 13.8, 13.8, 0.1284, 0.4832, 24.1616, 6.4199, 6.4199
15.3, (206.647,-23.058), 15.78, 100.0, 16.079993505980923, 16.62, 16.62, 0.1345, 0.4816, 24.0791, 6.723, 6.723
6.06, (208.413,-22.721), 6.54, 100.0, 7.559976117735466, 8.1, 8.1, 0.0616, 0.4962, 24.8094, 3.0814, 3.0814
3.36, (210.411,-22.636), 3.84, 100.0, 3.0599627342076685, 1.56, 1.56, 0.0225, 0.4995, 24.9747, 1.1254, 1.1254
7.5, (212.393,-22.38), 7.9799, 100.0, 8.339945468113386, 9, 9, 0.0684, 0.4953, 24.7651, 3.4188, 3.4188
358.98, (214.389,-22.292), 0.0601, 100.0, 0.06006979627231666, -0.3, -0.3, -0.0089, 0.4999, 24.996, -0.445, -0.445
348.84, (216.373,-22.518), 350.5199, 100.0, 350.51991059641483, -10.14, -10.14, -0.0968, 0.4905, 24.5273, -4.8387, -4.8387
356.88, (218.154,-22.768), 358.5599, 100.0, 357.8398984767368, -4.92, -4.92, -0.0335, 0.4989, 24.9439, -1.6743, -1.6743
350.1, (220.145,-22.935), 351.7799, 100.0, 352.799884142992, -7.86, -7.86, -0.0772, 0.494, 24.7003, -3.8591, -3.8591
340.56, (222.079,-23.434), 342.2399, 100.0, 342.95986437512863, -18, -18, -0.1605, 0.4735, 23.6775, -8.0236, -8.0236
344.88, (223.968,-24.086), 346.5598, 100.0, 346.55984990875174, -16.2, -16.2, -0.1304, 0.4827, 24.1345, -6.521, -6.521
341.94, (225.713,-24.525), 343.6198, 100.0, 344.3998366624276, -16.08, -16.08, -0.1485, 0.4774, 23.8716, -7.426, -7.426
332.04, (227.558,-25.292), 333.7198, 100.0, 334.7398216151544, -25.8, -25.8, -0.2265, 0.4457, 22.287, -11.3264, -11.3264
322.62, (229.246,-26.36), 324.2998, 100.0, 324.95980366517927, -35.7, -35.7, -0.299, 0.4008, 20.0392, -14.9476, -14.9476
322.02, (230.776,-27.648), 323.6998, 100.0, 323.39978593521414, -39.36, -39.36, -0.3098, 0.3925, 19.6248, -15.4876, -15.4876
324.06, (232.424,-28.779), 325.7398, 100.0, 326.15977193238314, -34.74, -34.74, -0.2905, 0.407, 20.3478, -14.5247, -14.5247
320.94, (233.805,-29.932), 322.6198, 100.0, 321.89975585625695, -40.86, -40.86, -0.3199, 0.3843, 19.2127, -15.996, -15.996
330.18, (235.455,-31.058), 331.8597, 100.0, 331.49973479236724, -31.2, -31.2, -0.2514, 0.4322, 21.6113, -12.568, -12.568
339.66, (237.085,-31.818), 341.3397, 100.0, 340.2597205435685, -21.78, -21.78, -0.1826, 0.4655, 23.2732, -9.13, -9.13
349.14, (239.007,-32.361), 350.8197, 100.0, 350.1597022471447, -12.3, -12.3, -0.0999, 0.4899, 24.4964, -4.9927, -4.9927
358.8, (240.993,-32.573), 0.4797, 100.0, 0.1196897783991208, -2.4, -2.4, -0.0136, 0.4998, 24.9907, -0.6806, -0.6806
8.64, (242.987,-32.447), 10.3197, 100.0, 10.019666623756939, 7.26, 7.26, 0.0725, 0.4947, 24.7356, 3.6262, 3.6262
17.76, (244.74,-32.048), 19.4396, 100.0, 18.719648637037725, 15.72, 15.72, 0.1465, 0.4781, 23.9025, 7.326, 7.326
11.28, (246.659,-31.493), 12.9596, 100.0, 13.619634676402654, 13.08, 13.08, 0.1034, 0.4892, 24.4591, 5.1722, 5.1722
2.04, (248.643,-31.255), 3.7196, 100.0, 4.079619693541574, 3.48, 3.48, 0.0209, 0.4996, 24.9781, 1.0469, 1.0469
6.3, (250.441,-31.198), 7.3796, 100.0, 6.1796056896625435, 4.14, 4.14, 0.0444, 0.498, 24.901, 2.2224, 2.2224
15.3, (252.406,-30.838), 16.3796, 100.0, 15.719588958780214, 13.8, 13.8, 0.1264, 0.4838, 24.1883, 6.3186, 6.3186
25.02, (254.283,-30.153), 26.0996, 100.0, 25.439571418572115, 23.28, 23.28, 0.2062, 0.4555, 22.7743, 10.3117, 10.3117
34.38, (256.019,-29.164), 35.4596, 100.0, 34.73955249144558, 32.94, 32.94, 0.2771, 0.4162, 20.8085, 13.8566, 13.8566
43.68, (257.415,-28.031), 44.7595, 100.0, 43.67953432957909, 41.82, 41.82, 0.3384, 0.368, 18.4024, 16.9219, 16.9219
53.46, (258.746,-26.541), 54.5395, 100.0, 53.51951206393659, 51.42, 51.42, 0.3964, 0.3048, 15.2398, 19.8179, 19.8179
62.7, (259.803,-24.846), 63.7795, 100.0, 63.119501646622396, 61.32, 61.32, 0.4416, 0.2344, 11.7214, 22.0819, 22.0819
72.24, (260.558,-22.997), 73.3195, 100.0, 72.9594830145611, 71.22, 71.22, 0.4752, 0.1555, 7.7752, 23.7602, 23.7602
81.42, (260.994,-21.047), 82.4995, 100.0, 82.49946629718337, 81, 81, 0.4944, 0.0746, 3.7298, 24.7202, 24.7202
91.68, (261.106,-19.253), 92.7594, 100.0, 91.67944807708155, 89.58, 89.58, 0.5, -0.0052, -0.2618, 24.9986, 24.9986
93.48, (261.043,-17.254), 94.5594, 100.0, 93.89943109697411, 91.68, 91.68, 0.4994, -0.0246, -1.23, 24.9697, 24.9697
101.82, (260.749,-15.278), 102.8994, 100.0, 102.89941329050232, 101.82, 101.82, 0.4894, -0.1024, -5.1209, 24.4699, 24.4699
97.86, (260.366,-13.315), 98.9394, 100.0, 99.29938979575309, 99.3, 99.3, 0.4949, -0.0715, -3.5744, 24.7432, 24.7432
94.62, (260.244,-11.52), 95.6994, 100.0, 94.61936903251106, 92.76, 92.76, 0.499, -0.0309, -1.5436, 24.9523, 24.9523
104.16, (259.925,-9.548), 105.2394, 100.0, 104.63935338904277, 102.42, 102.42, 0.4861, -0.1172, -5.8616, 24.3031, 24.3031
113.64, (259.276,-7.659), 114.7193, 100.0, 114.35933659006112, 111.96, 111.96, 0.4593, -0.1976, -9.8806, 22.9646, 22.9646
123, (258.315,-5.908), 124.0793, 100.0, 123.7193214767223, 122.34, 122.34, 0.421, -0.2697, -13.484, 21.0519, 21.0519
132.48, (257.08,-4.338), 133.5593, 100.0, 133.5593015997824, 131.7, 131.7, 0.3688, -0.3377, -16.8833, 18.4378, 18.4378
142.44, (255.758,-3.119), 143.5193, 100.0, 142.43928387921443, 140.52, 140.52, 0.3122, -0.3905, -19.5271, 15.6106, 15.6106
151.74, (254.092,-2.017), 152.8193, 100.0, 152.39926951300933, 149.88, 149.88, 0.24, -0.4387, -21.9328, 11.9979, 11.9979
154.5, (252.31,-1.109), 155.5793, 100.0, 155.21925379175255, 152.94, 152.94, 0.2181, -0.4499, -22.4966, 10.9043, 10.9043
162.96, (250.437,-0.413), 164.0392, 100.0, 164.03923804608405, 162.96, 162.96, 0.1465, -0.4781, -23.9025, 7.326, 7.326
172.14, (248.686,-0.005), 173.2192, 100.0, 172.01922265662688, 169.92, 169.92, 0.0787, -0.4938, -24.6881, 3.9367, 3.9367
173.28, (246.7,0.233), 174.3592, 100.0, 174.35920285377483, 173.28, 173.28, 0.0585, -0.4966, -24.8282, 2.9254, 2.9254
173.28, (244.714,0.467), 174.3592, 100.0, 174.35918252088845, 173.28, 173.28, 0.0585, -0.4966, -24.8282, 2.9254, 2.9254
173.28, (242.728,0.701), 174.3592, 100.0, 174.35916601600056, 173.28, 173.28, 0.0585, -0.4966, -24.8282, 2.9254, 2.9254
179.7, (240.935,0.844), 180.7792, 100.0, 180.05915276498715, 178.2, 178.2, 0.0089, -0.4999, -24.996, 0.445, 0.445
183.36, (239.137,0.758), 184.4391, 100.0, 184.43913450427382, -176.64, -176.64, -0.0293, -0.4991, -24.957, -1.4652, -1.4652
185.52, (237.141,0.632), 186.5991, 100.0, 186.17911644068352, -175.86, -175.86, -0.0444, -0.498, -24.901, -2.2224, -2.2224
193.38, (235.176,0.27), 194.4591, 100.0, 194.4590988650009, -166.62, -166.62, -0.1157, -0.4864, -24.3214, -5.7852, -5.7852
197.94, (233.242,-0.234), 199.0191, 100.0, 199.01908188256348, -163.14, -163.14, -0.154, -0.4757, -23.7845, -7.7005, -7.7005
203.4, (231.574,-0.908), 204.4791, 100.0, 204.4790695420328, -156.6, -156.6, -0.1986, -0.4589, -22.9439, -9.9287, -9.9287
203.4, (229.738,-1.702), 204.4791, 100.0, 204.47905211016524, -156.6, -156.6, -0.1986, -0.4589, -22.9439, -9.9287, -9.9287
203.4, (227.903,-2.497), 204.479, 100.0, 204.47903302286775, -156.6, -156.6, -0.1986, -0.4589, -22.9439, -9.9287, -9.9287
202.32, (226.066,-3.288), 203.399, 100.0, 203.39902031445237, -156.6, -156.6, -0.1899, -0.4625, -23.1269, -9.4945, -9.4945
193.32, (224.348,-3.82), 194.399, 100.0, 194.3990053531424, -166.02, -166.02, -0.1152, -0.4865, -24.3275, -5.7597, -5.7597
187.26, (222.39,-4.221), 188.339, 100.0, 188.69899459221674, -171.24, -171.24, -0.0663, -0.4956, -24.7792, -3.3151, -3.3151
182.94, (220.595,-4.344), 184.019, 100.0, 184.01898180466654, -177.06, -177.06, -0.0256, -0.4993, -24.9671, -1.2823, -1.2823
182.94, (218.597,-4.447), 184.019, 100.0, 184.01896110567208, -177.06, -177.06, -0.0256, -0.4993, -24.9671, -1.2823, -1.2823
182.94, (216.6,-4.549), 184.0189, 100.0, 184.018949310076, -177.06, -177.06, -0.0256, -0.4993, -24.9671, -1.2823, -1.2823
182.94, (214.603,-4.652), 184.0189, 100.0, 184.01893455915766, -177.06, -177.06, -0.0256, -0.4993, -24.9671, -1.2823, -1.2823
182.94, (212.605,-4.754), 184.0189, 100.0, 184.0189207041293, -177.06, -177.06, -0.0256, -0.4993, -24.9671, -1.2823, -1.2823
190.2, (210.814,-4.919), 191.2789, 100.0, 190.19890498880557, -171.96, -171.96, -0.0793, -0.4937, -24.684, -3.9626, -3.9626
199.2, (208.878,-5.413), 200.2789, 100.0, 199.55888658764832, -162.36, -162.36, -0.1585, -0.4742, -23.7109, -7.9243, -7.9243
208.8, (207.051,-6.22), 209.8789, 100.0, 209.21887378741528, -152.82, -152.82, -0.2358, -0.4409, -22.0449, -11.7907, -11.7907
213.6, (205.365,-7.295), 214.6789, 100.0, 214.6788646753313, -146.4, -146.4, -0.2767, -0.4165, -20.823, -13.8348, -13.8348
213.6, (203.866,-8.291), 214.6788, 100.0, 214.6788467464952, -146.4, -146.4, -0.2767, -0.4165, -20.823, -13.8348, -13.8348
222.9, (202.289,-9.517), 223.9788, 100.0, 223.67883061904416, -138.42, -138.42, -0.3384, -0.368, -18.4024, -16.9219, -16.9219
230.7, (200.902,-10.956), 231.7788, 100.0, 231.11881543399537, -130.8, -130.8, -0.3832, -0.3211, -16.0563, -19.1623, -19.1623
233.7, (199.706,-12.559), 234.7788, 100.0, 234.7787950263871, -126.3, -126.3, -0.403, -0.296, -14.8003, -20.1482, -20.1482
229.2, (198.619,-13.993), 230.2788, 100.0, 231.35878242911593, -128.7, -128.7, -0.3846, -0.3195, -15.9759, -19.2294, -19.2294
221.88, (197.214,-15.414), 222.9588, 100.0, 223.67876698531154, -136.38, -136.38, -0.3384, -0.368, -18.4024, -16.9219, -16.9219
213.48, (195.619,-16.616), 214.5588, 100.0, 214.55875549922146, -146.52, -146.52, -0.2758, -0.417, -20.852, -13.7911, -13.7911
203.52, (194.04,-17.478), 204.5987, 100.0, 205.3787403470573, -154.68, -154.68, -0.2058, -0.4557, -22.7851, -10.2879, -10.2879
203.16, (192.202,-18.266), 204.2387, 100.0, 204.2387227760431, -156.84, -156.84, -0.1967, -0.4597, -22.9853, -9.8325, -9.8325
193.62, (190.31,-18.906), 194.6987, 100.0, 195.0587049055928, -164.94, -164.94, -0.1208, -0.4852, -24.2595, -6.0396, -6.0396
183.84, (188.336,-19.213), 184.9187, 100.0, 185.27868851294602, -174.72, -174.72, -0.0366, -0.4987, -24.9329, -1.831, -1.831
182.76, (186.539,-19.301), 183.8387, 100.0, 183.83867226565377, -177.24, -177.24, -0.0241, -0.4994, -24.971, -1.2038, -1.2038
186.3, (184.542,-19.412), 187.3787, 100.0, 186.35865905430842, -175.8, -175.8, -0.046, -0.4979, -24.8939, -2.3006, -2.3006
192.84, (182.576,-19.774), 193.9186, 100.0, 193.9186437778891, -167.16, -167.16, -0.1111, -0.4875, -24.3749, -5.5557, -5.5557
192.84, (180.626,-20.218), 193.9186, 100.0, 193.9186220803361, -167.16, -167.16, -0.1111, -0.4875, -24.3749, -5.5557, -5.5557
192.84, (178.871,-20.618), 193.9186, 100.0, 193.91860530302395, -167.16, -167.16, -0.1111, -0.4875, -24.3749, -5.5557, -5.5557
191.52, (176.921,-21.06), 192.5986, 100.0, 193.25858848415245, -167.16, -167.16, -0.1055, -0.4887, -24.4372, -5.2746, -5.2746
182.76, (174.936,-21.285), 183.8386, 100.0, 183.8385701306975, -177.24, -177.24, -0.0241, -0.4994, -24.971, -1.2038, -1.2038
173.94, (173.138,-21.253), 175.0186, 100.0, 175.9185556834445, 175.86, 175.86, 0.045, -0.498, -24.8987, 2.2484, 2.2484
172.62, (171.154,-21.002), 173.6985, 100.0, 173.69853926041117, 172.62, 172.62, 0.0642, -0.4959, -24.7929, 3.2112, 3.2112
164.28, (169.19,-20.636), 165.3585, 100.0, 166.0185253111699, 166.02, 166.02, 0.1299, -0.4828, -24.1414, 6.4958, 6.4958
156.78, (167.3,-19.986), 157.8585, 100.0, 158.21850761543197, 158.16, 158.16, 0.1942, -0.4607, -23.0364, 9.712, 9.712
152.52, (165.516,-19.084), 153.5985, 100.0, 153.5984946786812, 152.16, 152.16, 0.2307, -0.4436, -22.1793, 11.536, 11.536
162.24, (163.852,-18.403), 163.3185, 100.0, 162.9584753136552, 160.74, 160.74, 0.1555, -0.4752, -23.7602, 7.7752, 7.7752
162.24, (161.947,-17.793), 163.3185, 100.0, 163.31846134695436, 162.24, 162.24, 0.1525, -0.4762, -23.8086, 7.6258, 7.6258
162.24, (160.042,-17.183), 163.3184, 100.0, 163.31843753201093, 162.24, 162.24, 0.1525, -0.4762, -23.8086, 7.6258, 7.6258
162.24, (158.328,-16.634), 163.3184, 100.0, 163.31842519014842, 162.24, 162.24, 0.1525, -0.4762, -23.8086, 7.6258, 7.6258
154.44, (156.459,-15.929), 155.5184, 100.0, 156.11840732942147, 156, 156, 0.211, -0.4533, -22.6651, 10.5496, 10.5496
150.36, (154.688,-14.999), 151.4384, 100.0, 152.15838860015043, 151.8, 151.8, 0.2418, -0.4376, -21.8824, 12.0897, 12.0897
142.02, (153.042,-13.868), 143.0984, 100.0, 143.09837355123761, 142.02, 142.02, 0.3077, -0.3941, -19.7056, 15.3847, 15.3847
143.7, (151.622,-12.762), 144.7784, 100.0, 143.7583569332052, 142.02, 142.02, 0.3031, -0.3976, -19.8815, 15.1567, 15.1567
152.16, (149.922,-11.711), 153.2383, 100.0, 153.23833781301147, 151.8, 151.8, 0.2335, -0.4421, -22.1064, 11.6751, 11.6751
144.18, (148.216,-10.672), 145.2583, 100.0, 145.25832188011213, 145.14, 145.14, 0.2926, -0.4054, -20.2715, 14.631, 14.631
141.96, (146.796,-9.566), 143.0383, 100.0, 143.03830902654903, 141.96, 141.96, 0.3081, -0.3938, -19.6895, 15.4053, 15.4053
151.26, (145.134,-8.459), 152.3383, 100.0, 151.97828600874598, 150.06, 150.06, 0.2432, -0.4369, -21.8443, 12.1584, 12.1584
152.28, (143.364,-7.527), 153.3583, 100.0, 153.35826885919974, 152.28, 152.28, 0.2326, -0.4426, -22.1308, 11.6288, 11.6288
152.94, (141.771,-6.69), 154.0183, 100.0, 153.3582548792814, 152.28, 152.28, 0.2326, -0.4426, -22.1308, 11.6288, 11.6288
162.48, (139.918,-5.943), 163.5582, 100.0, 163.5582364661288, 161.82, 161.82, 0.1505, -0.4768, -23.8403, 7.526, 7.526
152.22, (138.08,-5.162), 153.2982, 100.0, 153.29821976059995, 153.36, 153.36, 0.233, -0.4424, -22.1186, 11.6519, 11.6519
152.22, (136.488,-4.323), 153.2982, 100.0, 153.29820793797498, 152.22, 152.22, 0.233, -0.4424, -22.1186, 11.6519, 11.6519
146.82, (134.74,-3.352), 147.8982, 100.0, 148.5581898815572, 148.56, 148.56, 0.2688, -0.4216, -21.0801, 13.4398, 13.4398
142.2, (133.135,-2.16), 143.2782, 100.0, 143.2781738729762, 142.2, 142.2, 0.3065, -0.3951, -19.7539, 15.3227, 15.3227
142.2, (131.555,-0.935), 143.2782, 100.0, 143.27815713866266, 142.2, 142.2, 0.3065, -0.3951, -19.7539, 15.3227, 15.3227
145.98, (130.122,0.154), 147.0581, 100.0, 146.0381416113091, 144, 144, 0.2871, -0.4094, -20.4688, 14.3537, 14.3537
152.28, (128.39,1.152), 153.3581, 100.0, 153.35812573302596, 152.28, 152.28, 0.2326, -0.4426, -22.1308, 11.6288, 11.6288
152.28, (126.62,2.082), 153.3581, 100.0, 153.35810409744093, 152.28, 152.28, 0.2326, -0.4426, -22.1308, 11.6288, 11.6288
152.28, (125.026,2.919), 153.3581, 100.0, 153.35809400514634, 152.28, 152.28, 0.2326, -0.4426, -22.1308, 11.6288, 11.6288
152.28, (123.256,3.85), 153.3581, 100.0, 153.35807756122722, 152.28, 152.28, 0.2326, -0.4426, -22.1308, 11.6288, 11.6288
160.14, (121.437,4.676), 161.2181, 100.0, 161.21806140928481, 159.06, 159.06, 0.1699, -0.4703, -23.5131, 8.4931, 8.4931
155.04, (119.753,5.308), 156.118, 100.0, 156.53804870920817, 156.54, 156.54, 0.2077, -0.4548, -22.7418, 10.3832, 10.3832
146.64, (118.006,6.278), 147.718, 100.0, 147.718029358564, 147.72, 147.72, 0.2749, -0.4176, -20.8808, 13.7474, 13.7474
142.2, (116.568,7.359), 143.278, 100.0, 143.2780123184531, 142.2, 142.2, 0.3065, -0.3951, -19.7539, 15.3227, 15.3227
133.98, (115.054,8.663), 135.058, 100.0, 136.07799544891898, 136.02, 136.02, 0.3536, -0.3536, -17.6777, 17.6777, 17.6777
126.3, (113.751,10.178), 127.378, 100.0, 127.67798092095948, 127.62, 127.62, 0.4014, -0.2981, -14.9056, 20.0704, 20.0704
116.58, (112.712,11.885), 117.658, 100.0, 118.07796517691216, 118.02, 118.02, 0.4455, -0.227, -11.3498, 22.2752, 22.2752
111.54, (111.942,13.73), 112.618, 100.0, 112.61795016189238, 111.54, 111.54, 0.4651, -0.1836, -9.1788, 23.254, 23.254
111.54, (111.281,15.404), 112.6179, 100.0, 112.61793642666719, 111.54, 111.54, 0.4651, -0.1836, -9.1788, 23.254, 23.254
111.54, (110.547,17.265), 112.6179, 100.0, 112.61792058855455, 111.54, 111.54, 0.4651, -0.1836, -9.1788, 23.254, 23.254
111.54, (109.813,19.125), 112.6179, 100.0, 112.6179045863696, 111.54, 111.54, 0.4651, -0.1836, -9.1788, 23.254, 23.254
111.54, (109.078,20.985), 112.6179, 100.0, 112.61788543937224, 111.54, 111.54, 0.4651, -0.1836, -9.1788, 23.254, 23.254
111.54, (108.417,22.66), 112.6179, 100.0, 112.61786661977946, 111.54, 111.54, 0.4651, -0.1836, -9.1788, 23.254, 23.254
114.42, (107.673,24.516), 115.4979, 100.0, 114.77785176351688, 112.56, 112.56, 0.4578, -0.201, -10.0487, 22.8916, 22.8916
121.8, (106.702,26.262), 122.8778, 100.0, 122.87783863787253, 121.8, 121.8, 0.4249, -0.2635, -13.1739, 21.2473, 21.2473
121.8, (105.648,27.962), 122.8778, 100.0, 122.87782465060592, 121.8, 121.8, 0.4249, -0.2635, -13.1739, 21.2473, 21.2473
121.8, (104.594,29.661), 122.8778, 100.0, 122.87780746233403, 121.8, 121.8, 0.4249, -0.2635, -13.1739, 21.2473, 21.2473
113.34, (103.738,31.243), 114.4178, 100.0, 115.07778911197522, 115.08, 115.08, 0.4568, -0.2034, -10.1684, 22.8386, 22.8386
111.78, (102.992,33.099), 112.8578, 100.0, 112.85777060006757, 111.78, 111.78, 0.4643, -0.1855, -9.2761, 23.2154, 23.2154
108.9, (102.335,34.774), 109.9778, 100.0, 110.69775469314175, 110.7, 110.7, 0.471, -0.1679, -8.3945, 23.5485, 23.5485
101.64, (101.843,36.711), 102.7177, 100.0, 102.71773768572288, 101.64, 101.64, 0.4897, -0.1009, -5.044, 24.4859, 24.4859
101.64, (101.44,38.67), 102.7177, 100.0, 102.71771992889222, 101.64, 101.64, 0.4897, -0.1009, -5.044, 24.4859, 24.4859
101.64, (101.036,40.629), 102.7177, 100.0, 102.71770494015072, 101.64, 101.64, 0.4897, -0.1009, -5.044, 24.4859, 24.4859
109.26, (100.533,42.562), 110.3377, 100.0, 109.97768453005543, 107.94, 107.94, 0.473, -0.162, -8.0979, 23.6521, 23.6521
110.16, (99.878,44.239), 111.2377, 100.0, 112.01766909611314, 111.66, 111.66, 0.467, -0.1787, -8.9348, 23.3489, 23.3489
101.64, (99.343,46.163), 102.7177, 100.0, 102.71765049629539, 102, 102, 0.4897, -0.1009, -5.044, 24.4859, 24.4859
109.68, (98.835,48.096), 110.7576, 100.0, 110.09763484810794, 108.06, 108.06, 0.4727, -0.1629, -8.1475, 23.6351, 23.6351
111.66, (98.103,49.957), 112.7376, 100.0, 112.73761923845852, 111.66, 111.66, 0.4647, -0.1845, -9.2275, 23.2348, 23.2348
109.56, (97.443,51.632), 110.6376, 100.0, 111.65760610744442, 111.3, 111.3, 0.4681, -0.1758, -8.7879, 23.4046, 23.4046
99.96, (96.928,53.562), 101.0376, 100.0, 102.05759375641334, 101.64, 101.64, 0.4908, -0.0952, -4.7617, 24.5423, 24.5423
90.54, (96.745,55.551), 91.6176, 100.0, 92.2775757077685, 91.56, 91.56, 0.4999, -0.0105, -0.5236, 24.9945, 24.9945
81.06, (96.901,57.542), 82.1376, 100.0, 82.49755975063715, 81.72, 81.72, 0.4944, 0.0746, 3.7298, 24.7202, 24.7202
71.22, (97.389,59.479), 72.2975, 100.0, 72.29753667037127, 72.3, 72.3, 0.4734, 0.161, 8.0484, 23.669, 23.669
61.5, (98.1,61.13), 62.5775, 100.0, 63.597517151238115, 63.6, 63.6, 0.4436, 0.2307, 11.536, 22.1793, 22.1793
52.32, (99.172,62.816), 53.3975, 100.0, 54.05750467297874, 54, 54, 0.3992, 0.301, 15.0523, 19.9606, 19.9606
42.96, (100.515,64.295), 44.0375, 100.0, 44.397491258646504, 44.34, 44.34, 0.343, 0.3638, 18.1883, 17.1518, 17.1518
40.14, (102.023,65.608), 41.2175, 100.0, 41.93747736305185, 40.86, 40.86, 0.3271, 0.3782, 18.9078, 16.3553, 16.3553
30.66, (103.659,66.754), 31.7375, 100.0, 31.737465896918682, 31.44, 31.44, 0.255, 0.4301, 21.5052, 12.7486, 12.7486
30.66, (105.38,67.774), 31.7375, 100.0, 31.737450252299414, 30.66, 30.66, 0.255, 0.4301, 21.5052, 12.7486, 12.7486
30.66, (107.1,68.794), 31.7374, 100.0, 31.737435683903996, 30.66, 30.66, 0.255, 0.4301, 21.5052, 12.7486, 12.7486
30.66, (108.648,69.712), 31.7374, 100.0, 31.73742130664816, 30.66, 30.66, 0.255, 0.4301, 21.5052, 12.7486, 12.7486
26.7, (110.38,70.712), 27.7774, 100.0, 28.617408307081963, 28.5, 28.5, 0.2312, 0.4433, 22.1672, 11.5592, 11.5592
20.52, (112.226,71.477), 21.5974, 100.0, 21.597389862521986, 20.52, 20.52, 0.1753, 0.4683, 23.4137, 8.7634, 8.7634
11.4, (114.144,72.037), 12.4774, 100.0, 12.837373025813596, 12.42, 12.42, 0.1019, 0.4895, 24.4752, 5.0953, 5.0953
2.94, (115.926,72.274), 4.0174, 100.0, 4.677359236092862, 4.56, 4.56, 0.0314, 0.499, 24.9507, 1.5698, 1.5698
0.24, (117.926,72.296), 1.3173, 100.0, 1.3173369821815666, 0.24, 0.24, 0.0021, 0.5, 24.9998, 0.1047, 0.1047
4.26, (119.925,72.329), 5.3373, 100.0, 4.677324182035027, 2.58, 2.58, 0.0314, 0.499, 24.9507, 1.5698, 1.5698
11.34, (121.902,72.627), 12.4173, 100.0, 11.997312001977061, 10.56, 10.56, 0.0947, 0.4909, 24.5473, 4.736, 4.736
20.7, (123.817,73.192), 21.7773, 100.0, 21.77730090738465, 19.98, 19.98, 0.1767, 0.4677, 23.3861, 8.8369, 8.8369
10.44, (125.743,73.724), 11.5173, 100.0, 11.937281511023734, 11.88, 11.88, 0.0942, 0.491, 24.5523, 4.7102, 4.7102
10.44, (127.71,74.086), 11.5173, 100.0, 11.517265119490718, 10.44, 10.44, 0.0906, 0.4917, 24.5861, 4.5301, 4.5301
13.02, (129.478,74.421), 14.0973, 100.0, 13.317251622341173, 11.22, 11.22, 0.106, 0.4886, 24.4317, 5.3002, 5.3002
20.52, (131.383,75.024), 21.5972, 100.0, 21.59723512573292, 20.52, 20.52, 0.1753, 0.4683, 23.4137, 8.7634, 8.7634
20.52, (133.256,75.725), 21.5972, 100.0, 21.597222836945555, 20.52, 20.52, 0.1753, 0.4683, 23.4137, 8.7634, 8.7634
11.22, (135.176,76.276), 12.2972, 100.0, 12.297204641842539, 12.24, 12.24, 0.0973, 0.4904, 24.5222, 4.8644, 4.8644
10.5, (136.946,76.604), 11.5772, 100.0, 11.57718600746244, 10.5, 10.5, 0.0911, 0.4916, 24.5814, 4.5559, 4.5559
19.14, (138.886,77.08), 20.2172, 100.0, 19.31716944461137, 17.22, 17.22, 0.1565, 0.4749, 23.7438, 7.825, 7.825
20.52, (140.761,77.776), 21.5972, 100.0, 21.59715101991167, 20.52, 20.52, 0.1753, 0.4683, 23.4137, 8.7634, 8.7634
28.5, (142.409,78.495), 29.5771, 100.0, 28.917139059398277, 26.82, 26.82, 0.2335, 0.4421, 22.1064, 11.6751, 11.6751
30.6, (144.135,79.506), 31.6771, 100.0, 31.677122614482347, 30.6, 30.6, 0.2545, 0.4304, 21.5186, 12.726, 12.726
30.6, (145.857,80.524), 31.6771, 100.0, 31.67710701923301, 30.6, 30.6, 0.2545, 0.4304, 21.5186, 12.726, 12.726
30.6, (147.406,81.44), 31.6771, 100.0, 31.677096306361257, 30.6, 30.6, 0.2545, 0.4304, 21.5186, 12.726, 12.726
31.86, (149.126,82.46), 32.9371, 100.0, 32.33708430342962, 30.6, 30.6, 0.2595, 0.4274, 21.3705, 12.9731, 12.9731
40.74, (150.724,83.659), 41.8171, 100.0, 41.8170655036605, 40.74, 40.74, 0.3263, 0.3788, 18.942, 16.3157, 16.3157
34.62, (152.279,84.915), 35.697, 100.0, 36.35704660660036, 36.24, 36.24, 0.2888, 0.4082, 20.4085, 14.4393, 14.4393
30.48, (153.985,85.957), 31.557, 100.0, 31.557030850947193, 30.48, 30.48, 0.2536, 0.4309, 21.5452, 12.6809, 12.6809
24.24, (155.748,86.899), 25.317, 100.0, 25.31701602755159, 25.26, 25.26, 0.2053, 0.4559, 22.7958, 10.264, 10.264
22.32, (157.427,87.546), 23.397, 100.0, 22.43700216951737, 20.4, 20.4, 0.1821, 0.4657, 23.2828, 9.1057, 9.1057
30.48, (159.21,88.447), 31.557, 100.0, 31.55698807984362, 30.48, 30.48, 0.2536, 0.4309, 21.5452, 12.6809, 12.6809
23.46, (160.969,89.397), 24.537, 100.0, 25.55697484559903, 25.44, 25.44, 0.2072, 0.4551, 22.7526, 10.3594, 10.3594
26.58, (162.813,90.169), 27.657, 100.0, 26.996955209899237, 24.6, 24.6, 0.2186, 0.4497, 22.4851, 10.9279, 10.9279
35.82, (164.522,91.203), 36.8969, 100.0, 36.89693781251697, 34.8, 34.8, 0.2926, 0.4054, 20.2715, 14.631, 14.631
40.8, (166.057,92.483), 41.8769, 100.0, 41.876924352148436, 40.8, 40.8, 0.3267, 0.3785, 18.9249, 16.3355, 16.3355
40.8, (167.42,93.659), 41.8769, 100.0, 41.87691377045201, 40.8, 40.8, 0.3267, 0.3785, 18.9249, 16.3355, 16.3355
46.38, (168.755,94.865), 47.4569, 100.0, 46.67690238939451, 44.1, 44.1, 0.3572, 0.3498, 17.4916, 17.8618, 17.8618
50.88, (170.047,96.391), 51.9569, 100.0, 51.95688356027847, 50.88, 50.88, 0.3879, 0.3155, 15.7737, 19.3957, 19.3957
59.64, (171.209,98.016), 60.7169, 100.0, 60.05687096838695, 57.96, 57.96, 0.4285, 0.2577, 12.8834, 21.4247, 21.4247
55.44, (172.233,99.733), 56.5169, 100.0, 56.51685283894821, 56.46, 56.46, 0.4118, 0.2836, 14.1817, 20.5883, 20.5883
53.04, (173.463,101.309), 54.1168, 100.0, 53.75683260921563, 51.6, 51.6, 0.3976, 0.3031, 15.1567, 19.8815, 19.8815
61.08, (174.418,102.832), 62.1568, 100.0, 62.15681563953542, 61.08, 61.08, 0.4376, 0.2418, 12.0897, 21.8824, 21.8824
67.02, (175.33,104.611), 68.0968, 100.0, 67.73679760623894, 65.7, 65.7, 0.4591, 0.1981, 9.9047, 22.9543, 22.9543
70.86, (176.001,106.495), 71.9368, 100.0, 72.29677635791263, 71.22, 71.22, 0.4734, 0.161, 8.0484, 23.669, 23.669
60.9, (176.835,108.31), 61.9768, 100.0, 61.976761748217974, 61.68, 61.68, 0.4369, 0.2432, 12.1584, 21.8443, 21.8443
70.62, (177.579,109.946), 71.6967, 100.0, 70.6767446470851, 68.58, 68.58, 0.4686, 0.1743, 8.7143, 23.432, 23.432
79.44, (178.123,111.869), 80.5167, 100.0, 79.73672918279411, 77.88, 77.88, 0.4902, 0.0983, 4.9158, 24.5119, 24.5119
81.18, (178.436,113.844), 82.2567, 100.0, 82.25671373834611, 81.18, 81.18, 0.4941, 0.0767, 3.8333, 24.7044, 24.7044
81.18, (178.712,115.623), 82.2567, 100.0, 82.25670185201763, 81.18, 81.18, 0.4941, 0.0767, 3.8333, 24.7044, 24.7044
73.8, (179.112,117.58), 74.8767, 100.0, 75.1766834585907, 75.18, 75.18, 0.4809, 0.137, 6.849, 24.0435, 24.0435
77.76, (179.668,119.5), 78.8367, 100.0, 78.83667215637684, 76.74, 76.74, 0.4886, 0.106, 5.3002, 24.4317, 24.4317
75.66, (180.004,121.268), 76.7367, 100.0, 77.45665514360923, 77.46, 77.46, 0.4859, 0.1177, 5.887, 24.297, 24.297
76.08, (180.575,123.184), 77.1566, 100.0, 76.79663617619968, 74.7, 74.7, 0.4846, 0.1233, 6.1665, 24.2275, 24.2275
85.38, (180.888,125.157), 86.4566, 100.0, 86.09661867883558, 84.24, 84.24, 0.4981, 0.0434, 2.1702, 24.9056, 24.9056
91.44, (180.896,126.956), 92.5166, 100.0, 92.51659737974954, 91.44, 91.44, 0.4998, -0.0126, -0.6283, 24.9921, 24.9921
100.38, (180.711,128.945), 101.4566, 100.0, 101.03657909559163, 98.82, 98.82, 0.4925, -0.0865, -4.324, 24.6232, 24.6232
109.86, (180.186,130.872), 110.9366, 100.0, 110.93656468241663, 108.78, 108.78, 0.4703, -0.1699, -8.4931, 23.5131, 23.5131
119.04, (179.448,132.512), 120.1165, 100.0, 119.09654668168692, 117.24, 117.24, 0.4414, -0.2349, -11.7445, 22.0696, 22.0696
126.36, (178.373,134.197), 127.4365, 100.0, 127.07653511383938, 124.86, 124.86, 0.4045, -0.2939, -14.6946, 20.2254, 20.2254
135, (177.058,135.701), 136.0765, 100.0, 136.07651769782038, 133.92, 133.92, 0.3536, -0.3536, -17.6777, 17.6777, 17.6777
142.62, (175.683,136.861), 143.6965, 100.0, 143.696505276897, 142.62, 142.62, 0.3035, -0.3973, -19.8657, 15.1775, 15.1775
139.08, (174.107,138.092), 140.1565, 100.0, 140.57649004457093, 140.58, 140.58, 0.3247, -0.3802, -19.0101, 16.2362, 16.2362
129.6, (172.714,139.523), 130.6765, 100.0, 131.336475492327, 131.34, 131.34, 0.3816, -0.3231, -16.1564, 19.078, 19.078
122.1, (171.571,141.163), 123.1765, 100.0, 123.17645658598437, 122.1, 122.1, 0.4236, -0.2657, -13.285, 21.178, 21.178
119.4, (170.522,142.865), 120.4764, 100.0, 120.47643579592044, 120.6, 120.6, 0.4356, -0.2455, -12.2726, 21.7803, 21.7803
111.84, (169.775,144.501), 112.9164, 100.0, 112.91642550098078, 111.84, 111.84, 0.4641, -0.186, -9.3004, 23.2057, 23.2057
103.86, (169.129,146.392), 104.9364, 100.0, 105.65640812519588, 105.54, 105.54, 0.4839, -0.1259, -6.2933, 24.1949, 24.1949
106.2, (168.684,148.341), 107.2764, 100.0, 106.49638863909679, 104.64, 104.64, 0.482, -0.1329, -6.6473, 24.1001, 24.1001
111.78, (167.993,150.217), 112.8564, 100.0, 112.85636921842452, 111.78, 111.78, 0.4643, -0.1855, -9.2761, 23.2154, 23.2154
111.78, (167.697,150.96), 112.8564, 100.0, 112.8563650312163, 111.78, 111.78, 0.4643, -0.1855, -9.2761, 23.2154, 23.2154
105.36, (167.171,152.47), 106.4363, 100.0, 106.79634633161027, 106.44, 106.44, 0.4813, -0.1355, -6.7734, 24.0649, 24.0649
107.76, (166.681,154.408), 108.8363, 100.0, 108.53632621860223, 106.32, 106.32, 0.477, -0.15, -7.501, 23.8482, 23.8482
117.18, (165.905,156.249), 118.2563, 100.0, 118.25631077327603, 116.1, 116.1, 0.4448, -0.2284, -11.4197, 22.2394, 22.2394
126.84, (164.953,157.775), 127.9163, 100.0, 126.83629528261835, 124.68, 124.68, 0.4057, -0.2922, -14.6098, 20.2868, 20.2868
136.44, (163.635,159.277), 137.5163, 100.0, 136.4362775267122, 134.34, 134.34, 0.3513, -0.3558, -17.7884, 17.5662, 17.5662
139.26, (162.107,160.566), 140.3363, 100.0, 140.6962655554573, 140.7, 140.7, 0.3239, -0.3809, -19.0441, 16.1964, 16.1964
134.94, (160.697,161.983), 136.0163, 100.0, 135.6562527605481, 133.62, 133.62, 0.3561, -0.351, -17.5476, 17.8068, 17.8068
144.18, (159.327,163.147), 145.2562, 100.0, 144.53623670668856, 142.38, 142.38, 0.2977, -0.4017, -20.086, 14.8846, 14.8846
153.6, (157.613,164.173), 154.6762, 100.0, 154.37621718091373, 152.58, 152.58, 0.2247, -0.4467, -22.3343, 11.233, 11.233
162.9, (155.751,164.896), 163.9762, 100.0, 163.9761969020896, 162.6, 162.6, 0.147, -0.4779, -23.8948, 7.351, 7.351
172.74, (153.993,165.273), 173.8162, 100.0, 173.09618197645563, 170.94, 170.94, 0.0694, -0.4952, -24.7579, 3.4707, 3.4707
173.46, (152.009,165.526), 174.5362, 100.0, 173.816163797097, 172.74, 172.74, 0.0632, -0.496, -24.7996, 3.1593, 3.1593
183, (150.013,165.584), 184.0761, 100.0, 184.07614501424183, -178.08, -178.08, -0.0262, -0.4993, -24.9657, -1.3084, -1.3084
176.52, (148.014,165.544), 177.5961, 100.0, 178.25613205968048, 178.14, 178.14, 0.0246, -0.4994, -24.9697, 1.23, 1.23
178.56, (146.022,165.704), 179.6361, 100.0, 179.6361157100828, 177.54, 177.54, 0.0126, -0.4998, -24.9921, 0.6283, 0.6283
183.12, (144.223,165.633), 184.1961, 100.0, 184.19610478506138, -176.88, -176.88, -0.0272, -0.4993, -24.9629, -1.3607, -1.3607
183.12, (142.226,165.524), 184.1961, 100.0, 184.19608758971938, -176.88, -176.88, -0.0272, -0.4993, -24.9629, -1.3607, -1.3607
183.12, (140.229,165.415), 184.1961, 100.0, 184.19607257545445, -176.88, -176.88, -0.0272, -0.4993, -24.9629, -1.3607, -1.3607
174.24, (138.431,165.44), 175.3161, 100.0, 176.09605794546877, 176.04, 176.04, 0.0434, -0.4981, -24.9056, 2.1702, 2.1702
181.74, (136.437,165.562), 182.816, 100.0, 182.09603530767373, 179.88, 179.88, -0.0089, -0.4999, -24.996, -0.445, -0.445
190.98, (134.452,165.342), 192.056, 100.0, 192.05602146733534, -170.04, -170.04, -0.0952, -0.4908, -24.5423, -4.7617, -4.7617
200.76, (132.533,164.787), 201.836, 100.0, 201.4160017670379, -160.44, -160.44, -0.1738, -0.4688, -23.4412, -8.6898, -8.6898
210.06, (130.907,164.019), 211.136, 100.0, 210.35598785029288, -151.8, -151.8, -0.2445, -0.4361, -21.806, -12.227, -12.227
218.88, (129.254,162.896), 219.956, 100.0, 219.29597111040584, -142.86, -142.86, -0.3093, -0.3928, -19.641, -15.4671, -15.4671
219.54, (127.759,161.569), 220.616, 100.0, 220.91595464285996, -139.02, -139.02, -0.3203, -0.3839, -19.1959, -16.0161, -16.0161
213.3, (126.123,160.419), 214.3759, 100.0, 214.3759333889217, -146.7, -146.7, -0.2745, -0.4179, -20.8952, -13.7256, -13.7256
213.72, (124.619,159.431), 214.7959, 100.0, 214.37591854193897, -146.7, -146.7, -0.2745, -0.4179, -20.8952, -13.7256, -13.7256
223.68, (123.058,158.185), 224.7559, 100.0, 224.3359088581129, -137.82, -137.82, -0.3427, -0.3641, -18.2063, -17.1328, -17.1328
214.68, (121.521,156.909), 215.7559, 100.0, 216.35589201612584, -143.64, -143.64, -0.2888, -0.4082, -20.4085, -14.4393, -14.4393
204.9, (119.792,155.908), 205.9759, 100.0, 206.69587477229598, -153.72, -153.72, -0.2162, -0.4508, -22.542, -10.81, -10.81
203.82, (117.959,155.109), 204.8959, 100.0, 204.53585749624426, -156.54, -156.54, -0.1991, -0.4587, -22.9335, -9.9527, -9.9527
213.84, (116.385,154.241), 214.9158, 100.0, 214.19584430554394, -147.9, -147.9, -0.2732, -0.4188, -20.9382, -13.6599, -13.6599
205.5, (114.662,153.23), 206.5758, 100.0, 206.87583358775709, -153.06, -153.06, -0.2176, -0.4502, -22.508, -10.8808, -10.8808
203.82, (112.834,152.419), 204.8958, 100.0, 204.895809056929, -156.18, -156.18, -0.2019, -0.4574, -22.8705, -10.0966, -10.0966
202.8, (111.187,151.692), 203.8758, 100.0, 204.895794886096, -156.18, -156.18, -0.2019, -0.4574, -22.8705, -10.0966, -10.0966
193.8, (109.288,151.073), 194.8758, 100.0, 194.87578641187312, -165.84, -165.84, -0.1193, -0.4856, -24.2784, -5.9633, -5.9633
190.98, (107.342,150.61), 192.0558, 100.0, 192.47577134294204, -167.64, -167.64, -0.0988, -0.4901, -24.5068, -4.9414, -4.9414
185.94, (105.357,150.384), 187.0158, 100.0, 187.01575795991675, -175.2, -175.2, -0.0517, -0.4973, -24.8658, -2.5872, -2.5872
193.8, (103.591,150.045), 194.8757, 100.0, 194.87574674037913, -166.2, -166.2, -0.1193, -0.4856, -24.2784, -5.9633, -5.9633
193.8, (101.648,149.568), 194.8757, 100.0, 194.87573282228766, -166.2, -166.2, -0.1193, -0.4856, -24.2784, -5.9633, -5.9633
194.82, (99.707,149.089), 195.8957, 100.0, 195.5357151463493, -166.2, -166.2, -0.1249, -0.4842, -24.2081, -6.2426, -6.2426
203.94, (98.017,148.475), 205.0157, 100.0, 205.01570445977254, -156.72, -156.72, -0.2029, -0.457, -22.8493, -10.1445, -10.1445
210.3, (96.221,147.598), 211.3757, 100.0, 211.01568786028056, -151.2, -151.2, -0.2495, -0.4333, -21.6637, -12.4773, -12.4773
214.08, (94.719,146.606), 215.1557, 100.0, 215.1556728719568, -145.92, -145.92, -0.2802, -0.4141, -20.7064, -14.0087, -14.0087
220.92, (93.108,145.423), 221.9957, 100.0, 221.63565371931978, -140.52, -140.52, -0.3251, -0.3799, -18.9931, -16.2561, -16.2561
219.06, (91.632,144.075), 220.1356, 100.0, 220.79563337307312, -139.26, -139.26, -0.3195, -0.3846, -19.2294, -15.9759, -15.9759
213.9, (89.999,142.921), 214.9756, 100.0, 214.9756203971445, -146.1, -146.1, -0.2789, -0.415, -20.7503, -13.9436, -13.9436
209.16, (88.315,141.845), 210.2356, 100.0, 210.23560565288867, -149.76, -149.76, -0.2436, -0.4366, -21.8316, -12.1813, -12.1813
199.68, (86.672,141.113), 200.7556, 100.0, 201.47559294894913, -158.82, -158.82, -0.1743, -0.4686, -23.432, -8.7143, -8.7143
190.38, (84.74,140.604), 191.4556, 100.0, 191.45557516947258, -168.54, -168.54, -0.0901, -0.4918, -24.5909, -4.5044, -4.5044
182.7, (82.751,140.416), 183.7756, 100.0, 183.77555902708244, -176.64, -176.64, -0.0236, -0.4994, -24.9722, -1.1777, -1.1777
173.22, (80.955,140.496), 174.2955, 100.0, 174.29554461136698, 174.24, 174.24, 0.059, -0.4965, -24.8252, 2.9514, 2.9514
166.74, (78.979,140.796), 167.8155, 100.0, 168.53552627999053, 168.54, 168.54, 0.1086, -0.4881, -24.4036, 5.428, 5.428
157.32, (77.076,141.406), 158.3955, 100.0, 159.05550873383942, 158.7, 158.7, 0.1875, -0.4635, -23.1763, 9.3733, 9.3733
148.08, (75.304,142.328), 149.1555, 100.0, 149.1554860529255, 149.16, 149.16, 0.2644, -0.4244, -21.2197, 13.2184, 13.2184
138.24, (73.868,143.411), 139.3155, 100.0, 140.27546979249348, 140.28, 140.28, 0.3267, -0.3785, -18.9249, 16.3355, 16.3355
132.42, (72.47,144.839), 133.4955, 100.0, 133.4954503691663, 132.42, 132.42, 0.3691, -0.3373, -16.864, 18.4555, 18.4555
127.86, (71.149,146.34), 128.9354, 100.0, 129.2954311841985, 129.18, 129.18, 0.3928, -0.3093, -15.4671, 19.641, 19.641
122.22, (70.042,148.005), 123.2954, 100.0, 123.29540700731695, 122.22, 122.22, 0.423, -0.2666, -13.3293, 21.1502, 21.1502
122.22, (69.082,149.527), 123.2954, 100.0, 123.29538776117563, 122.22, 122.22, 0.423, -0.2666, -13.3293, 21.1502, 21.1502
116.58, (68.059,151.245), 117.6554, 100.0, 118.31537382646843, 118.2, 118.2, 0.4445, -0.2289, -11.443, 22.2274, 22.2274
111.9, (67.278,153.085), 112.9754, 100.0, 112.9753534878276, 111.9, 111.9, 0.4639, -0.1865, -9.3247, 23.1959, 23.1959
105.48, (66.666,154.777), 106.5553, 100.0, 107.27533609062891, 107.28, 107.28, 0.4801, -0.1395, -6.9748, 24.0073, 24.0073
101.58, (66.235,156.729), 102.6553, 100.0, 102.65532297261778, 101.58, 101.58, 0.4898, -0.1004, -5.0184, 24.4911, 24.4911
96.42, (65.884,158.697), 97.4953, 100.0, 97.49530767194514, 97.62, 97.62, 0.4969, -0.0559, -2.7954, 24.8432, 24.8432
91.32, (65.807,160.495), 92.3953, 100.0, 92.39529112998451, 91.32, 91.32, 0.4999, -0.0115, -0.5759, 24.9934, 24.9934
82.38, (65.885,162.491), 83.4553, 100.0, 84.1152806664086, 84.18, 84.18, 0.4963, 0.0606, 3.0294, 24.8158, 24.8158
81.3, (66.183,164.469), 82.3753, 100.0, 82.37526995548473, 81.3, 81.3, 0.4942, 0.0756, 3.7815, 24.7123, 24.7123
88.62, (66.388,166.456), 89.6952, 100.0, 89.69524657150733, 87.48, 87.48, 0.4999, 0.012, 0.6021, 24.9927, 24.9927
85.08, (66.416,168.255), 86.1552, 100.0, 86.81523209544747, 86.82, 86.82, 0.4986, 0.0371, 1.8571, 24.9309, 24.9309
75.48, (66.749,170.224), 76.5552, 100.0, 77.15521223185787, 76.86, 76.86, 0.4853, 0.1203, 6.0142, 24.2658, 24.2658
66.18, (67.334,171.925), 67.2552, 100.0, 68.33519536408, 68.1, 68.1, 0.4611, 0.1933, 9.6638, 23.0567, 23.0567
64.62, (68.237,173.708), 65.6952, 100.0, 65.27518207959943, 63.18, 63.18, 0.4502, 0.2176, 10.8808, 22.508, 22.508
68.16, (68.965,175.57), 69.2352, 100.0, 69.53516935272926, 69.66, 69.66, 0.4651, 0.1836, 9.1788, 23.254, 23.254
60.9, (69.864,177.355), 61.9752, 100.0, 61.975155474890826, 60.9, 60.9, 0.4369, 0.2432, 12.1584, 21.8443, 21.8443
50.58, (70.877,178.841), 51.6551, 100.0, 52.675141245105635, 52.62, 52.62, 0.3918, 0.3106, 15.5287, 19.5923, 19.5923
50.58, (72.147,180.386), 51.6551, 100.0, 51.65512181987542, 50.58, 50.58, 0.3863, 0.3175, 15.875, 19.3128, 19.3128
50.58, (73.417,181.931), 51.6551, 100.0, 51.655104702354045, 50.58, 50.58, 0.3863, 0.3175, 15.875, 19.3128, 19.3128
50.58, (74.687,183.476), 51.6551, 100.0, 51.65508779286819, 50.58, 50.58, 0.3863, 0.3175, 15.875, 19.3128, 19.3128
50.58, (75.83,184.866), 51.6551, 100.0, 51.65507425077754, 50.58, 50.58, 0.3863, 0.3175, 15.875, 19.3128, 19.3128
50.58, (77.1,186.411), 51.6551, 100.0, 51.65505289969283, 50.58, 50.58, 0.3863, 0.3175, 15.875, 19.3128, 19.3128
50.58, (78.37,187.956), 51.655, 100.0, 51.655042585968964, 50.58, 50.58, 0.3863, 0.3175, 15.875, 19.3128, 19.3128
42.24, (79.74,189.41), 43.315, 100.0, 43.315025358300836, 43.2, 43.2, 0.3361, 0.3702, 18.5084, 16.8059, 16.8059
37.44, (81.115,190.572), 38.515, 100.0, 39.6550093145953, 39.36, 39.36, 0.3118, 0.3909, 19.5435, 15.5902, 15.5902
30.18, (82.789,191.662), 31.255, 100.0, 31.254993218616303, 30.18, 30.18, 0.2514, 0.4322, 21.6113, 12.568, 12.568
23.52, (84.554,192.6), 24.595, 100.0, 24.95498118318166, 24.96, 24.96, 0.2024, 0.4572, 22.8599, 10.1206, 10.1206
20.16, (86.425,193.306), 21.235, 100.0, 21.234963397121486, 20.16, 20.16, 0.1723, 0.4694, 23.4683, 8.6161, 8.6161
20.16, (88.115,193.926), 21.2349, 100.0, 21.234946723828177, 20.16, 20.16, 0.1723, 0.4694, 23.4683, 8.6161, 8.6161
29.34, (89.936,194.745), 30.4149, 100.0, 30.05492770199682, 27.84, 27.84, 0.2423, 0.4374, 21.8697, 12.1126, 12.1126
30.36, (91.663,195.755), 31.4349, 100.0, 31.434913901494998, 30.36, 30.36, 0.2527, 0.4314, 21.5717, 12.6358, 12.6358
25.14, (93.236,196.628), 26.2149, 100.0, 26.994900346837294, 26.94, 26.94, 0.2186, 0.4497, 22.4851, 10.9279, 10.9279
20.28, (95.096,197.361), 21.3549, 100.0, 21.354884376607984, 20.28, 20.28, 0.1733, 0.469, 23.4502, 8.6652, 8.6652
20.28, (96.972,198.054), 21.3549, 100.0, 21.354870358636827, 20.28, 20.28, 0.1733, 0.469, 23.4502, 8.6652, 8.6652
20.28, (98.848,198.747), 21.3549, 100.0, 21.354853824304392, 20.28, 20.28, 0.1733, 0.469, 23.4502, 8.6652, 8.6652
25.2, (100.523,199.405), 26.2748, 100.0, 25.614836680098225, 23.46, 23.46, 0.2077, 0.4548, 22.7418, 10.3832, 10.3832
30.72, (102.271,200.375), 31.7948, 100.0, 31.49481491579418, 30.42, 30.42, 0.2532, 0.4312, 21.5584, 12.6584, 12.6584
40.44, (103.892,201.541), 41.5148, 100.0, 41.5148068044035, 39.36, 39.36, 0.3243, 0.3805, 19.0271, 16.2163, 16.2163
40.44, (105.414,202.839), 41.5148, 100.0, 41.514784439030706, 40.44, 40.44, 0.3243, 0.3805, 19.0271, 16.2163, 16.2163
40.44, (106.936,204.136), 41.5148, 100.0, 41.5147714873612, 40.44, 40.44, 0.3243, 0.3805, 19.0271, 16.2163, 16.2163
30.72, (108.4,205.18), 31.7948, 100.0, 32.15476092621349, 32.46, 32.46, 0.2581, 0.4282, 21.4112, 12.9059, 12.9059
30.36, (110.126,206.191), 31.4347, 100.0, 31.434744811654518, 30.36, 30.36, 0.2527, 0.4314, 21.5717, 12.6358, 12.6358
20.22, (111.932,207.044), 21.2947, 100.0, 21.59473212577703, 21.6, 21.6, 0.1753, 0.4683, 23.4137, 8.7634, 8.7634
11.16, (113.659,207.545), 12.2347, 100.0, 13.254718659944961, 13.2, 13.2, 0.1055, 0.4887, 24.4372, 5.2746, 5.2746
13.08, (115.625,207.912), 14.1547, 100.0, 13.434699533917932, 11.16, 11.16, 0.107, 0.4884, 24.4205, 5.3513, 5.3513
20.22, (117.529,208.518), 21.2947, 100.0, 21.29468452298108, 20.22, 20.22, 0.1728, 0.4692, 23.4593, 8.6406, 8.6406
20.22, (119.405,209.21), 21.2947, 100.0, 21.294666047599943, 20.22, 20.22, 0.1728, 0.4692, 23.4593, 8.6406, 8.6406
20.22, (121.094,209.832), 21.2947, 100.0, 21.294650983879002, 20.22, 20.22, 0.1728, 0.4692, 23.4593, 8.6406, 8.6406
20.22, (122.784,210.454), 21.2946, 100.0, 21.294637879387174, 20.22, 20.22, 0.1728, 0.4692, 23.4593, 8.6406, 8.6406
20.22, (124.848,211.214), 21.2946, 100.0, 21.294620153417622, 20.22, 20.22, 0.1728, 0.4692, 23.4593, 8.6406, 8.6406
20.22, (126.537,211.836), 21.2946, 100.0, 21.294607468926937, 20.22, 20.22, 0.1728, 0.4692, 23.4593, 8.6406, 8.6406
20.22, (128.414,212.528), 21.2946, 100.0, 21.294586989492007, 20.22, 20.22, 0.1728, 0.4692, 23.4593, 8.6406, 8.6406
11.1, (130.141,213.028), 12.1746, 100.0, 12.894571498089258, 12.96, 12.96, 0.1024, 0.4894, 24.4699, 5.1209, 5.1209
18.6, (132.084,213.492), 19.6746, 100.0, 18.954559323423723, 16.8, 16.8, 0.1535, 0.4759, 23.7925, 7.6756, 7.6756
27.84, (133.922,214.274), 28.9145, 100.0, 28.614544230179014, 26.46, 26.46, 0.2312, 0.4433, 22.1672, 11.5592, 11.5592
24.84, (135.681,215.224), 25.9145, 100.0, 25.914526003794098, 26.1, 26.1, 0.21, 0.4537, 22.6871, 10.5021, 10.5021
24.9, (137.347,215.905), 25.9745, 100.0, 25.254508160250406, 23.1, 23.1, 0.2048, 0.4561, 22.8066, 10.2401, 10.2401
30.48, (139.097,216.871), 31.5545, 100.0, 31.554495769983557, 30.48, 30.48, 0.2536, 0.4309, 21.5452, 12.6809, 12.6809
31.86, (140.818,217.889), 32.9345, 100.0, 32.57447937532069, 30.48, 30.48, 0.2612, 0.4263, 21.316, 13.0625, 13.0625
41.22, (142.414,219.09), 42.2945, 100.0, 42.29446562707941, 40.5, 40.5, 0.3295, 0.3761, 18.8046, 16.4738, 16.4738
50.58, (143.656,220.391), 51.6545, 100.0, 51.65445376813211, 49.56, 49.56, 0.3863, 0.3175, 15.875, 19.3128, 19.3128
50.58, (144.926,221.936), 51.6544, 100.0, 51.654437456167905, 50.58, 50.58, 0.3863, 0.3175, 15.875, 19.3128, 19.3128
50.58, (146.196,223.481), 51.6544, 100.0, 51.654422259166, 50.58, 50.58, 0.3863, 0.3175, 15.875, 19.3128, 19.3128
50.58, (147.466,225.026), 51.6544, 100.0, 51.654408031305024, 50.58, 50.58, 0.3863, 0.3175, 15.875, 19.3128, 19.3128
53.4, (148.725,226.579), 54.4744, 100.0, 53.87438648977017, 52.02, 52.02, 0.3983, 0.3023, 15.115, 19.9132, 19.9132
62.58, (149.775,228.279), 63.6544, 100.0, 63.35436648094567, 61.26, 61.26, 0.4426, 0.2326, 11.6288, 22.1308, 22.1308
70.02, (150.529,230.129), 71.0944, 100.0, 71.09435369731078, 71.1, 71.1, 0.4699, 0.1708, 8.5423, 23.4953, 23.4953
59.82, (151.292,231.758), 60.8943, 100.0, 61.854338309667035, 61.8, 61.8, 0.4364, 0.2441, 12.2041, 21.8188, 21.8188
49.62, (152.428,233.4), 50.6943, 100.0, 51.714319193827265, 51.66, 51.66, 0.3866, 0.3171, 15.8548, 19.3294, 19.3294
39.54, (153.842,234.811), 40.6143, 100.0, 41.39430335277397, 41.34, 41.34, 0.3235, 0.3812, 19.0611, 16.1764, 16.1764
29.52, (155.484,235.947), 30.5943, 100.0, 31.014287397548756, 31.02, 31.02, 0.2495, 0.4333, 21.6637, 12.4773, 12.4773
19.2, (157.306,236.767), 20.2743, 100.0, 20.574271499946317, 20.58, 20.58, 0.1669, 0.4713, 23.566, 8.3452, 8.3452
8.82, (159.244,237.249), 9.8943, 100.0, 10.194256908011637, 10.44, 10.44, 0.0793, 0.4937, 24.684, 3.9626, 3.9626
358.92, (161.237,237.374), 0.1258, 100.0, 0.1257526852093065, 0.06, 0.06, -0.0094, 0.4999, 24.9956, -0.4712, -0.4712
348.72, (163.025,237.179), 350.5142, 100.0, 351.4742383012113, -9.24, -9.24, -0.0896, 0.4919, 24.5956, -4.4786, -4.4786
340.02, (164.945,236.631), 341.8142, 100.0, 341.81422452163775, -19.56, -19.56, -0.1708, 0.4699, 23.4953, -8.5423, -8.5423
341.82, (166.827,235.952), 343.6142, 100.0, 343.25420842146343, -19.62, -19.62, -0.159, 0.4741, 23.7025, -7.9492, -7.9492
350.1, (168.771,235.493), 351.8942, 100.0, 351.89419311559436, -9.9, -9.9, -0.086, 0.4926, 24.6277, -4.2982, -4.2982
355.38, (170.749,235.205), 357.1742, 100.0, 357.17417910591047, -5.58, -5.58, -0.0403, 0.4984, 24.9188, -2.0137, -2.0137
4.02, (172.748,235.209), 5.8142, 100.0, 5.454156909930607, 2.94, 2.94, 0.0319, 0.499, 24.949, 1.5959, 1.5959
7.32, (174.529,235.459), 9.1141, 100.0, 10.134142011575397, 9.3, 9.3, 0.0725, 0.4947, 24.7356, 3.6262, 3.6262
0, (176.525,235.564), 1.7941, 100.0, 1.7941270711478563, 0, 0, 0, 0.5, 25, 0, 0
0, (178.525,235.564), 1.7941, 100.0, 1.7941139734767841, 0, 0, 0, 0.5, 25, 0, 0
351.3, (180.517,235.423), 352.3859, 100.0, 352.3858801786409, -7.68, -7.68, -0.0756, 0.4942, 24.7123, -3.7815, -3.7815
350.58, (182.49,235.096), 351.6659, 100.0, 351.6658625449901, -9.42, -9.42, -0.0818, 0.4933, 24.6629, -4.0918, -4.0918
350.58, (184.266,234.801), 351.6658, 100.0, 351.665844265078, -9.42, -9.42, -0.0818, 0.4933, 24.6629, -4.0918, -4.0918
350.58, (186.239,234.474), 351.6658, 100.0, 351.665828108099, -9.42, -9.42, -0.0818, 0.4933, 24.6629, -4.0918, -4.0918
352.68, (188.213,234.154), 353.7658, 100.0, 353.4058092324533, -9.06, -9.06, -0.0668, 0.4955, 24.7757, -3.341, -3.341
0.96, (190.209,234.071), 2.0458, 100.0, 2.0457972108641216, 0.96, 0.96, 0.0084, 0.4999, 24.9965, 0.4189, 0.4189
0.96, (192.209,234.105), 2.0458, 100.0, 2.045779544785515, 0.96, 0.96, 0.0084, 0.4999, 24.9965, 0.4189, 0.4189
8.76, (194.002,234.233), 9.8458, 100.0, 9.125763964328861, 6.96, 6.96, 0.0699, 0.4951, 24.7543, 3.4966, 3.4966
11.28, (195.966,234.613), 12.3657, 100.0, 12.365745015157753, 11.28, 11.28, 0.0978, 0.4903, 24.5171, 4.8901, 4.8901
1.08, (197.952,234.82), 2.1657, 100.0, 2.5857344762505, 2.34, 2.34, 0.0131, 0.4998, 24.9914, 0.6544, 0.6544
1.08, (199.752,234.854), 2.1657, 100.0, 2.165724470417192, 1.08, 1.08, 0.0094, 0.4999, 24.9956, 0.4712, 0.4712
1.08, (201.752,234.892), 2.1657, 100.0, 2.1657086323150896, 1.08, 1.08, 0.0094, 0.4999, 24.9956, 0.4712, 0.4712
358.2, (203.751,234.912), 359.2743, 100.0, 359.63430401659554, -0.36, -0.36, -0.0126, 0.4998, 24.9921, -0.6283, -0.6283
351, (205.539,234.712), 352.0743, 100.0, 352.07429035561165, -9, -9, -0.0782, 0.4938, 24.6922, -3.9109, -3.9109
351, (207.514,234.4), 352.0743, 100.0, 352.074274490577, -9, -9, -0.0782, 0.4938, 24.6922, -3.9109, -3.9109
0.66, (209.505,234.243), 1.7343, 100.0, 1.434263097054985, -0.96, -0.96, 0.0031, 0.5, 24.9995, 0.1571, 0.1571
10.62, (211.492,234.444), 11.6942, 100.0, 11.69424380842092, 9.48, 9.48, 0.0921, 0.4914, 24.5718, 4.6074, 4.6074
20.82, (213.223,234.93), 21.8942, 100.0, 20.75423278822146, 18.66, 18.66, 0.1684, 0.4708, 23.5397, 8.4192, 8.4192
30.9, (215.027,235.789), 31.9742, 100.0, 31.19421555611157, 29.04, 29.04, 0.2509, 0.4325, 21.6244, 12.5453, 12.5453
40.92, (216.645,236.959), 41.9942, 100.0, 41.63419727729481, 39.42, 39.42, 0.3251, 0.3799, 18.9931, 16.2561, 16.2561
51.18, (218.025,238.404), 52.2542, 100.0, 51.834183617961, 49.74, 49.74, 0.3873, 0.3163, 15.8143, 19.3626, 19.3626
61.08, (219.028,239.896), 62.1542, 100.0, 61.49416482530691, 59.16, 59.16, 0.4348, 0.2468, 12.341, 21.7417, 21.7417
71.28, (219.843,241.719), 72.3541, 100.0, 71.69414995707051, 69.54, 69.54, 0.4717, 0.1659, 8.2958, 23.5835, 23.5835
81.12, (220.318,243.659), 82.1941, 100.0, 81.83413544666998, 79.68, 79.68, 0.4935, 0.0803, 4.0143, 24.6756, 24.6756
82.26, (220.624,245.636), 83.3341, 100.0, 82.97412240351528, 81.12, 81.12, 0.495, 0.0705, 3.5225, 24.7506, 24.7506
90.9, (220.721,247.431), 91.9741, 100.0, 92.27410455686537, 90.12, 90.12, 0.4999, -0.0105, -0.5236, 24.9945, 24.9945
80.88, (220.853,249.424), 81.9541, 100.0, 82.67409007712692, 82.62, 82.62, 0.4946, 0.073, 3.6521, 24.7318, 24.7318
71.22, (221.319,251.366), 72.2941, 100.0, 73.01407087208482, 73.02, 73.02, 0.4754, 0.155, 7.7503, 23.7683, 23.7683
62.04, (222.106,253.202), 63.1141, 100.0, 63.11405502060665, 63.12, 63.12, 0.4416, 0.2344, 11.7214, 22.0819, 22.0819
52.5, (223.071,254.72), 53.574, 100.0, 54.59403663312013, 54.48, 54.48, 0.402, 0.2973, 14.8636, 20.1016, 20.1016
43.08, (224.403,256.209), 44.154, 100.0, 44.81401771317758, 44.88, 44.88, 0.3457, 0.3612, 18.0621, 17.2847, 17.2847
46.62, (225.872,257.565), 47.694, 100.0, 47.334007445003564, 45.18, 45.18, 0.3612, 0.3457, 17.2847, 18.0621, 18.0621
44.4, (227.21,259.05), 45.474, 100.0, 45.83398830963014, 45.78, 45.78, 0.3521, 0.355, 17.7516, 17.6035, 17.6035
35.04, (228.588,260.205), 36.114, 100.0, 37.25397041431309, 37.26, 37.26, 0.2952, 0.4036, 20.1792, 14.7581, 14.7581
30, (230.294,261.247), 31.074, 100.0, 31.07395435603898, 30, 30, 0.25, 0.433, 21.6506, 12.5, 12.5
22.02, (232.081,262.14), 23.0939, 100.0, 23.09393088616214, 23.04, 23.04, 0.1875, 0.4635, 23.1763, 9.3733, 9.3733
14.64, (233.785,262.717), 15.7139, 100.0, 16.433914604849637, 16.74, 16.74, 0.1324, 0.4821, 24.107, 6.6221, 6.6221
5.16, (235.752,263.066), 6.2339, 100.0, 6.893894803867762, 6.9, 6.9, 0.0507, 0.4974, 24.8711, 2.5351, 2.5351
356.46, (237.75,263.092), 357.6661, 100.0, 358.0861129763626, -1.98, -1.98, -0.0272, 0.4993, 24.9629, -1.3607, -1.3607
347.1, (239.726,262.791), 348.3061, 100.0, 348.7260985476243, -11.82, -11.82, -0.108, 0.4882, 24.4093, -5.4025, -5.4025
337.56, (241.623,262.165), 338.7661, 100.0, 338.7660790005116, -21.36, -21.36, -0.1909, 0.4621, 23.107, -9.5429, -9.5429
328.32, (243.216,261.332), 329.5261, 100.0, 330.1860680945672, -30.66, -30.66, -0.2577, 0.4285, 21.4247, -12.8834, -12.8834
318.9, (244.812,260.131), 320.1061, 100.0, 320.106051115896, -40.8, -40.8, -0.3287, 0.3768, 18.8391, -16.4344, -16.4344
308.88, (246.056,258.833), 310.086, 100.0, 310.8660376124498, -49.32, -49.32, -0.3849, 0.3191, 15.9558, -19.2461, -19.2461
299.34, (247.187,257.187), 300.546, 100.0, 300.9060243420237, -59.28, -59.28, -0.4343, 0.2477, 12.3865, -21.7158, -21.7158
289.92, (248.017,255.37), 291.126, 100.0, 291.1260081418342, -69, -69, -0.4701, 0.1704, 8.5177, -23.5042, -23.5042
288.42, (248.587,253.662), 289.626, 100.0, 289.6259941086284, -71.58, -71.58, -0.4744, 0.158, 7.8995, -23.7191, -23.7191
287.04, (249.216,251.764), 288.246, 100.0, 288.90598433565947, -71.58, -71.58, -0.4763, 0.152, 7.6008, -23.8165, -23.8165
277.68, (249.637,249.811), 278.886, 100.0, 279.2459677190889, -81.54, -81.54, -0.4951, 0.0699, 3.4966, -24.7543, -24.7543
267.96, (249.725,247.816), 269.1659, 100.0, 269.16594602063276, -91.08, -91.08, -0.4997, -0.0178, -0.8899, -24.9842, -24.9842
267.96, (249.661,246.017), 269.1659, 100.0, 269.16592944329835, -92.04, -92.04, -0.4997, -0.0178, -0.8899, -24.9842, -24.9842
260.7, (249.504,244.025), 261.9059, 100.0, 262.3259117866787, -97.56, -97.56, -0.494, -0.0772, -3.8591, -24.7003, -24.7003
257.88, (249.098,242.066), 259.0859, 100.0, 259.0858964878944, -102.12, -102.12, -0.4889, -0.105, -5.249, -24.4428, -24.4428
257.88, (248.72,240.307), 259.0859, 100.0, 259.085877994575, -102.12, -102.12, -0.4889, -0.105, -5.249, -24.4428, -24.4428
257.88, (248.3,238.351), 259.0859, 100.0, 259.0858578363837, -102.12, -102.12, -0.4889, -0.105, -5.249, -24.4428, -24.4428
249.24, (247.758,236.429), 250.4458, 100.0, 250.86584274485017, -109.26, -109.26, -0.4688, -0.1738, -8.6898, -23.4412, -23.4412
241.8, (246.949,234.601), 243.0058, 100.0, 243.4258269387371, -116.7, -116.7, -0.4424, -0.233, -11.6519, -22.1186, -22.1186
237.78, (245.906,232.895), 238.9858, 100.0, 238.9858099604045, -122.22, -122.22, -0.423, -0.2666, -13.3293, -21.1502, -21.1502
237.78, (244.946,231.372), 238.9858, 100.0, 238.98579558025367, -122.22, -122.22, -0.423, -0.2666, -13.3293, -21.1502, -21.1502
237.78, (243.88,229.68), 238.9858, 100.0, 238.98578365075335, -122.22, -122.22, -0.423, -0.2666, -13.3293, -21.1502, -21.1502
237.78, (242.813,227.988), 238.9858, 100.0, 238.98576478422808, -122.22, -122.22, -0.423, -0.2666, -13.3293, -21.1502, -21.1502
237.78, (241.747,226.296), 238.9858, 100.0, 238.9857513479303, -122.22, -122.22, -0.423, -0.2666, -13.3293, -21.1502, -21.1502
229.02, (240.689,224.842), 230.2257, 100.0, 231.00573650990157, -129.48, -129.48, -0.3819, -0.3227, -16.1364, -19.0949, -19.0949
235.26, (239.423,223.297), 236.4657, 100.0, 236.10572105208627, -126.24, -126.24, -0.4091, -0.2875, -14.3751, -20.4537, -20.4537
237.72, (238.347,221.611), 238.9257, 100.0, 238.92570472694757, -122.28, -122.28, -0.4227, -0.267, -13.3514, -21.1362, -21.1362
231.12, (237.334,220.125), 232.3257, 100.0, 233.04568585539758, -126.84, -126.84, -0.3931, -0.3089, -15.4465, -19.6572, -19.6572
227.4, (236.003,218.633), 228.6057, 100.0, 228.605667360596, -132.6, -132.6, -0.368, -0.3384, -16.9219, -18.4024, -18.4024
236.76, (234.76,217.069), 237.9657, 100.0, 237.305652632318, -125.04, -125.04, -0.415, -0.2789, -13.9436, -20.7503, -20.7503
247.02, (233.82,215.306), 248.2256, 100.0, 247.80563500367847, -114.36, -114.36, -0.4589, -0.1986, -9.9287, -22.9439, -22.9439
256.98, (233.261,213.598), 258.1856, 100.0, 257.46562095806286, -104.76, -104.76, -0.4857, -0.1188, -5.9379, -24.2846, -24.2846
267.12, (232.982,211.62), 268.3256, 100.0, 267.965605555363, -94.26, -94.26, -0.4992, -0.0283, -1.413, -24.96, -24.96
277.5, (233.066,209.625), 278.7056, 100.0, 278.34558752747927, -83.88, -83.88, -0.4961, 0.0621, 3.1074, -24.8061, -24.8061
287.4, (233.453,207.869), 288.6056, 100.0, 287.88556810656, -74.34, -74.34, -0.479, 0.1435, 7.1757, -23.9481, -23.9481
297.78, (234.214,206.022), 298.9856, 100.0, 298.32555113942243, -63.84, -63.84, -0.445, 0.2279, 11.3964, -22.2513, -22.2513
307.92, (235.289,204.339), 309.1255, 100.0, 308.40553674890367, -53.76, -53.76, -0.3983, 0.3023, 15.115, -19.9132, -19.9132
317.52, (236.651,202.878), 318.7255, 100.0, 318.72551993942085, -43.44, -43.44, -0.3377, 0.3688, 18.4378, -16.8833, -16.8833
307.68, (237.999,201.404), 308.8855, 100.0, 309.24550240528913, -51, -51, -0.3938, 0.3081, 15.4053, -19.6895, -19.6895
298.5, (238.988,199.902), 299.7055, 100.0, 300.36548450600714, -59.82, -59.82, -0.4366, 0.2436, 12.1813, -21.8316, -21.8316
297, (239.901,198.123), 298.2055, 100.0, 298.2054706993774, -63, -63, -0.4455, 0.227, 11.3498, -22.2752, -22.2752
291.36, (240.762,196.319), 292.5655, 100.0, 292.9254575461614, -67.2, -67.2, -0.4645, 0.185, 9.2518, -23.2251, -23.2251
286.86, (241.377,194.416), 288.0654, 100.0, 288.06544170640825, -73.14, -73.14, -0.4785, 0.145, 7.2509, -23.9254, -23.9254
286.86, (241.957,192.502), 288.0654, 100.0, 288.0654232871094, -73.14, -73.14, -0.4785, 0.145, 7.2509, -23.9254, -23.9254
286.86, (242.537,190.588), 288.0654, 100.0, 288.06540244486376, -73.14, -73.14, -0.4785, 0.145, 7.2509, -23.9254, -23.9254
281.46, (243.017,188.854), 282.6654, 100.0, 283.4453911199562, -76.62, -76.62, -0.4886, 0.106, 5.3002, -24.4317, -24.4317
276.78, (243.296,186.875), 277.9854, 100.0, 277.9853734497767, -83.22, -83.22, -0.4965, 0.059, 2.9514, -24.8252, -24.8252
284.94, (243.653,184.909), 286.1454, 100.0, 286.1453555655145, -76.14, -76.14, -0.4831, 0.1289, 6.4452, -24.1549, -24.1549
282.78, (244.203,182.987), 283.9853, 100.0, 284.3453367670152, -75.78, -75.78, -0.4869, 0.1137, 5.6833, -24.3454, -24.3454
277.08, (244.474,181.208), 278.2853, 100.0, 278.2853235716664, -82.92, -82.92, -0.4962, 0.0616, 3.0814, -24.8094, -24.8094
267.06, (244.556,179.213), 268.2653, 100.0, 268.92530192045274, -91.2, -91.2, -0.4996, -0.0199, -0.9946, -24.9802, -24.9802
267.06, (244.454,177.215), 268.2653, 100.0, 268.2652815764571, -92.94, -92.94, -0.4993, -0.0256, -1.2823, -24.9671, -24.9671
265.98, (244.361,175.418), 267.1853, 100.0, 268.2652688237253, -92.94, -92.94, -0.4993, -0.0256, -1.2823, -24.9671, -24.9671
256.74, (244.064,173.443), 257.9452, 100.0, 258.2452486877244, -102.24, -102.24, -0.4873, -0.1121, -5.6068, -24.3632, -24.3632
246.78, (243.444,171.544), 247.9852, 100.0, 248.34523567750892, -111.84, -111.84, -0.4607, -0.1942, -9.712, -23.0364, -23.0364
237.18, (242.511,169.778), 238.3852, 100.0, 238.74521734227199, -121.32, -121.32, -0.4219, -0.2684, -13.4178, -21.0942, -21.0942
236.46, (241.516,168.278), 237.6652, 100.0, 237.66520060772964, -123.54, -123.54, -0.4168, -0.2763, -13.813, -20.8375, -20.8375
235.68, (240.411,166.611), 236.8852, 100.0, 237.6651896170254, -123.54, -123.54, -0.4168, -0.2763, -13.813, -20.8375, -20.8375
226.38, (239.153,165.059), 227.5852, 100.0, 227.58517966098, -132.48, -132.48, -0.362, -0.3449, -17.2468, -18.0983, -18.0983
236.58, (237.913,163.494), 237.7852, 100.0, 237.4251649903114, -124.8, -124.8, -0.4156, -0.278, -13.9001, -20.7795, -20.7795
246.06, (236.953,161.742), 247.2651, 100.0, 247.26514390316785, -115.02, -115.02, -0.457, -0.2029, -10.1445, -22.8493, -22.8493
248.52, (236.246,160.087), 249.7251, 100.0, 248.7051266683799, -113.22, -113.22, -0.4619, -0.1913, -9.5671, -23.097, -23.097
256.8, (235.668,158.175), 258.0051, 100.0, 258.0051108457609, -103.2, -103.2, -0.4868, -0.1142, -5.7088, -24.3395, -24.3395
264.96, (235.311,156.209), 266.1651, 100.0, 265.14508935585985, -97.08, -97.08, -0.4972, -0.0528, -2.6392, -24.8603, -24.8603
260.46, (235.12,154.219), 261.6651, 100.0, 262.02507027775107, -98.16, -98.16, -0.4936, -0.0798, -3.9884, -24.6798, -24.6798
256.08, (234.671,152.271), 257.7051, 100.0, 257.70505481647797, -103.92, -103.92, -0.4853, -0.1203, -6.0142, -24.2658, -24.2658
256.08, (234.19,150.33), 257.705, 100.0, 257.70503424889154, -103.92, -103.92, -0.4853, -0.1203, -6.0142, -24.2658, -24.2658
256.08, (233.757,148.583), 257.705, 100.0, 257.7050221199071, -103.92, -103.92, -0.4853, -0.1203, -6.0142, -24.2658, -24.2658
259.32, (233.296,146.637), 260.945, 100.0, 260.52501321511596, -101.88, -101.88, -0.4906, -0.0963, -4.813, -24.5323, -24.5323
268.74, (233.105,144.648), 270.365, 100.0, 270.3649957062688, -92.4, -92.4, -0.4999, -0.011, -0.5497, -24.994, -24.994
276.54, (233.239,142.654), 278.165, 100.0, 278.1649792996386, -83.46, -83.46, -0.4967, 0.0569, 2.8474, -24.8373, -24.8373
276.54, (233.466,140.667), 278.165, 100.0, 278.1649636226051, -83.46, -83.46, -0.4967, 0.0569, 2.8474, -24.8373, -24.8373
276.54, (233.671,138.879), 278.1649, 100.0, 278.16494942560143, -83.46, -83.46, -0.4967, 0.0569, 2.8474, -24.8373, -24.8373
280.14, (233.922,136.895), 281.7649, 100.0, 281.4649313848279, -81.36, -81.36, -0.4926, 0.0854, 4.2724, -24.6322, -24.6322
286.8, (234.43,134.962), 288.4249, 100.0, 288.42491628858176, -73.2, -73.2, -0.4787, 0.1445, 7.2258, -23.933, -23.933
286.8, (235.008,133.048), 288.4249, 100.0, 288.42490077245424, -73.2, -73.2, -0.4787, 0.1445, 7.2258, -23.933, -23.933
293.58, (235.595,131.348), 295.2049, 100.0, 294.4848839096949, -68.16, -68.16, -0.4607, 0.1942, 9.712, -23.0364, -23.0364
303.42, (236.539,129.587), 305.0449, 100.0, 304.024864749207, -58.38, -58.38, -0.4222, 0.2679, 13.3957, -21.1082, -21.1082
307.08, (237.722,127.975), 308.7048, 100.0, 308.70484458211104, -52.92, -52.92, -0.3989, 0.3015, 15.0732, -19.9449, -19.9449
308.16, (238.93,126.381), 309.4248, 100.0, 309.42482813516506, -52.92, -52.92, -0.3931, 0.3089, 15.4465, -19.6572, -19.6572
317.7, (240.16,125.07), 318.9648, 100.0, 318.5448133196519, -43.74, -43.74, -0.3392, 0.3673, 18.3669, -16.9604, -16.9604
317.7, (241.639,123.724), 318.9648, 100.0, 318.96480079362743, -42.3, -42.3, -0.3365, 0.3698, 18.4908, -16.8253, -16.8253
319.56, (243.122,122.382), 320.8248, 100.0, 320.10477319796087, -41.94, -41.94, -0.3291, 0.3764, 18.8219, -16.4541, -16.4541
327.9, (244.752,121.227), 329.1648, 100.0, 329.16476139565367, -32.1, -32.1, -0.2657, 0.4236, 21.178, -13.285, -13.285
318.12, (246.186,120.142), 319.3848, 100.0, 320.0447526454855, -40.14, -40.14, -0.3295, 0.3761, 18.8046, -16.4738, -16.4738
323.58, (247.703,118.84), 324.8447, 100.0, 324.48472944444427, -37.92, -37.92, -0.2994, 0.4005, 20.0235, -14.9686, -14.9686
332.88, (249.405,117.794), 334.1447, 100.0, 333.78471680562245, -28.44, -28.44, -0.2307, 0.4436, 22.1793, -11.536, -11.536
342.12, (251.067,117.107), 343.3847, 100.0, 342.6647052139015, -19.62, -19.62, -0.1595, 0.4739, 23.6942, -7.974, -7.974
345.12, (253.005,116.616), 346.3847, 100.0, 347.044691128537, -13.2, -13.2, -0.1228, 0.4847, 24.234, -6.1411, -6.1411
335.52, (254.884,115.939), 336.7847, 100.0, 337.0846702775733, -23.1, -23.1, -0.2048, 0.4561, 22.8066, -10.2401, -10.2401
326.34, (256.624,114.958), 327.6047, 100.0, 327.6046520389719, -32.64, -32.64, -0.2771, 0.4162, 20.8085, -13.8566, -13.8566
316.14, (258.027,113.833), 317.4046, 100.0, 318.36464156573754, -41.88, -41.88, -0.3404, 0.3663, 18.3136, -17.018, -17.018
306.12, (259.35,112.336), 307.3846, 100.0, 308.1646200644329, -52.08, -52.08, -0.3998, 0.3002, 15.0105, -19.9921, -19.9921
295.98, (260.383,110.627), 297.2446, 100.0, 297.9046010536706, -62.28, -62.28, -0.4469, 0.2242, 11.2096, -22.346, -22.346
285.9, (261.096,108.761), 287.1646, 100.0, 287.464583785206, -72.78, -72.78, -0.4801, 0.1395, 6.9748, -24.0073, -24.0073
275.52, (261.46,106.797), 276.7846, 100.0, 277.0845682445953, -83.04, -83.04, -0.4974, 0.0507, 2.5351, -24.8711, -24.8711
265.44, (261.479,104.999), 266.7046, 100.0, 267.66455454117704, -92.58, -92.58, -0.499, -0.0314, -1.5698, -24.9507, -24.9507
255.3, (261.155,103.029), 256.5645, 100.0, 257.2245370999166, -103.02, -103.02, -0.4851, -0.1213, -6.065, -24.2532, -24.2532
245.34, (260.479,101.149), 246.6045, 100.0, 246.96452030106855, -113.64, -113.64, -0.4557, -0.2058, -10.2879, -22.7851, -22.7851
237.72, (259.488,99.414), 238.9845, 100.0, 238.98450467797042, -122.28, -122.28, -0.4227, -0.267, -13.3514, -21.1362, -21.1362
235.56, (258.523,97.895), 236.8245, 100.0, 237.9044889350297, -122.28, -122.28, -0.4176, -0.2749, -13.7474, -20.8808, -20.8808
228.78, (257.268,96.34), 230.0445, 100.0, 228.9644689051792, -132.6, -132.6, -0.3698, -0.3365, -16.8253, -18.4908, -18.4908
238.2, (256.081,94.734), 239.4645, 100.0, 238.74445174499763, -122.52, -122.52, -0.4216, -0.2688, -13.4398, -21.0801, -21.0801
247.56, (255.185,92.949), 248.8244, 100.0, 248.8244358238415, -113.1, -113.1, -0.4621, -0.1909, -9.5429, -23.107, -23.107
257.7, (254.644,91.234), 258.9644, 100.0, 257.82441539478725, -104.16, -104.16, -0.4863, -0.1162, -5.8107, -24.3153, -24.3153
266.94, (254.362,89.257), 268.2044, 100.0, 267.90439567911596, -94.38, -94.38, -0.4991, -0.0293, -1.4652, -24.957, -24.957
267.72, (254.282,87.258), 268.9844, 100.0, 268.9843828602575, -92.28, -92.28, -0.4996, -0.0199, -0.9946, -24.9802, -24.9802
268.14, (254.211,85.46), 269.4044, 100.0, 268.9843688385336, -92.28, -92.28, -0.4996, -0.0199, -0.9946, -24.9802, -24.9802
278.04, (254.311,83.465), 279.3044, 100.0, 278.88435474620195, -83.46, -83.46, -0.4956, 0.0663, 3.3151, -24.7792, -24.7792
278.04, (254.59,81.485), 279.3043, 100.0, 279.30433868379964, -81.96, -81.96, -0.4951, 0.0699, 3.4966, -24.7543, -24.7543
269.46, (254.728,79.692), 270.7243, 100.0, 271.44432988315225, -88.74, -88.74, -0.5, 0.0016, 0.0785, -24.9999, -24.9999
276.12, (254.765,77.694), 277.3843, 100.0, 276.66431260990805, -85.62, -85.62, -0.4978, 0.0471, 2.3527, -24.889, -24.889
285.18, (255.133,75.731), 286.4443, 100.0, 286.4442983239947, -75.9, -75.9, -0.4826, 0.1309, 6.5463, -24.1277, -24.1277
288.36, (255.689,74.019), 289.6243, 100.0, 289.6242842868014, -71.64, -71.64, -0.4745, 0.1575, 7.8747, -23.7274, -23.7274
278.82, (256.175,72.081), 280.0843, 100.0, 280.80426423916987, -79.32, -79.32, -0.4931, 0.0829, 4.1434, -24.6543, -24.6543
286.8, (256.576,70.124), 288.0642, 100.0, 287.2242482294962, -74.7, -74.7, -0.4807, 0.1375, 6.8742, -24.0363, -24.0363
295.74, (257.289,68.258), 297.0042, 100.0, 296.58423277741815, -65.7, -65.7, -0.452, 0.2138, 10.6918, -22.5983, -22.5983
301.2, (258.243,66.501), 302.4642, 100.0, 302.464208276946, -59.82, -59.82, -0.4277, 0.259, 12.9507, -21.3841, -21.3841
309.12, (259.298,65.044), 310.3842, 100.0, 309.7241940206323, -51.54, -51.54, -0.3915, 0.311, 15.5492, -19.5761, -19.5761
318.72, (260.677,63.599), 319.9842, 100.0, 319.6241808498947, -42.6, -42.6, -0.3322, 0.3737, 18.6834, -16.6112, -16.6112
318.72, (262.18,62.28), 319.9842, 100.0, 319.98416470780506, -41.28, -41.28, -0.3299, 0.3757, 18.7874, -16.4935, -16.4935
318.72, (263.683,60.96), 319.9841, 100.0, 319.9841485969952, -41.28, -41.28, -0.3299, 0.3757, 18.7874, -16.4935, -16.4935
318.72, (265.186,59.641), 319.9841, 100.0, 319.98412896426527, -41.28, -41.28, -0.3299, 0.3757, 18.7874, -16.4935, -16.4935
318.72, (266.689,58.321), 319.9841, 100.0, 319.98411382562506, -41.28, -41.28, -0.3299, 0.3757, 18.7874, -16.4935, -16.4935
318.72, (268.042,57.134), 319.9841, 100.0, 319.984100969009, -41.28, -41.28, -0.3299, 0.3757, 18.7874, -16.4935, -16.4935
319.8, (269.546,55.816), 321.0641, 100.0, 320.64408020352823, -41.28, -41.28, -0.3255, 0.3795, 18.9761, -16.276, -16.276
328.98, (271.18,54.667), 330.2441, 100.0, 330.2440669800849, -31.44, -31.44, -0.2577, 0.4285, 21.4247, -12.8834, -12.8834
335.82, (272.754,53.796), 337.0841, 100.0, 336.004050958469, -26.28, -26.28, -0.2134, 0.4522, 22.6095, -10.6682, -10.6682
335.4, (274.605,53.038), 336.664, 100.0, 337.02403643708544, -23.1, -23.1, -0.2053, 0.4559, 22.7958, -10.264, -10.264
328.74, (276.35,52.065), 330.004, 100.0, 330.0040215108008, -31.26, -31.26, -0.2595, 0.4274, 21.3705, -12.9731, -12.9731
333, (277.9,51.15), 334.264, 100.0, 333.1240035863626, -29.22, -29.22, -0.2358, 0.4409, 22.0449, -11.7907, -11.7907
338.94, (279.737,50.363), 340.204, 100.0, 340.2039842073284, -21.06, -21.06, -0.1797, 0.4666, 23.3301, -8.9836, -8.9836
330.18, (281.553,49.532), 331.444, 100.0, 332.1039674566133, -28.2, -28.2, -0.2436, 0.4366, 21.8316, -12.1813, -12.1813
322.14, (283.224,48.436), 323.404, 100.0, 323.8239537000905, -36.42, -36.42, -0.304, 0.397, 19.8498, -15.1983, -15.1983
318.48, (284.736,47.126), 319.7439, 100.0, 319.7439368800639, -41.52, -41.52, -0.3314, 0.3744, 18.7181, -16.572, -16.572
318.48, (286.083,45.933), 319.7439, 100.0, 319.74391980283417, -41.52, -41.52, -0.3314, 0.3744, 18.7181, -16.572, -16.572
319.56, (287.582,44.608), 320.8239, 100.0, 320.103901046227, -41.52, -41.52, -0.3291, 0.3764, 18.8219, -16.4541, -16.4541
328.62, (289.205,43.444), 329.8839, 100.0, 329.8838839198345, -32.1, -32.1, -0.2604, 0.4269, 21.3433, -13.0178, -13.0178
331.44, (290.92,42.417), 332.7039, 100.0, 332.3438669431396, -29.58, -29.58, -0.2418, 0.4376, 21.8824, -12.0897, -12.0897
337.56, (292.566,41.691), 338.8239, 100.0, 339.9038523012886, -21.06, -21.06, -0.1821, 0.4657, 23.2828, -9.1057, -9.1057
328.92, (294.346,40.784), 330.1838, 100.0, 330.1838343273927, -30.72, -30.72, -0.2581, 0.4282, 21.4112, -12.9059, -12.9059
328.92, (296.058,39.751), 330.1838, 100.0, 330.18381485157613, -31.08, -31.08, -0.2581, 0.4282, 21.4112, -12.9059, -12.9059
328.92, (297.771,38.719), 330.1838, 100.0, 330.1837945108635, -31.08, -31.08, -0.2581, 0.4282, 21.4112, -12.9059, -12.9059
327.48, (299.312,37.788), 328.7438, 100.0, 329.5237812721428, -31.08, -31.08, -0.263, 0.4252, 21.2611, -13.1516, -13.1516
319.5, (300.904,36.581), 320.7638, 100.0, 320.10376926406536, -40.8, -40.8, -0.3291, 0.3764, 18.8219, -16.4541, -16.4541
329.1, (302.531,35.423), 330.3638, 100.0, 330.3637520311831, -31.68, -31.68, -0.2568, 0.429, 21.4516, -12.8385, -12.8385
337.32, (304.304,34.503), 338.5837, 100.0, 338.58373537063875, -24.12, -24.12, -0.1928, 0.4613, 23.0668, -9.6396, -9.6396
339.48, (305.988,33.866), 340.7437, 100.0, 340.7437206321159, -20.52, -20.52, -0.1753, 0.4683, 23.4137, -8.7634, -8.7634
339.48, (307.861,33.165), 340.7437, 100.0, 340.74370122727333, -20.52, -20.52, -0.1753, 0.4683, 23.4137, -8.7634, -8.7634
339.48, (309.734,32.464), 340.7437, 100.0, 340.74368111417357, -20.52, -20.52, -0.1753, 0.4683, 23.4137, -8.7634, -8.7634
345.6, (311.63,31.833), 346.8637, 100.0, 346.8636696022191, -15.36, -15.36, -0.1243, 0.4843, 24.2146, -6.2172, -6.2172
349.68, (313.397,31.489), 350.9437, 100.0, 350.94365161084517, -10.32, -10.32, -0.0896, 0.4919, 24.5956, -4.4786, -4.4786
342.96, (315.348,31.057), 344.2236, 100.0, 344.6436404609681, -15.48, -15.48, -0.143, 0.4791, 23.9556, -7.1506, -7.1506
339.42, (317.227,30.374), 340.6836, 100.0, 340.6836240417592, -20.58, -20.58, -0.1758, 0.4681, 23.4046, -8.7879, -8.7879
339.42, (319.1,29.671), 340.6836, 100.0, 340.68360541036657, -20.58, -20.58, -0.1758, 0.4681, 23.4046, -8.7879, -8.7879
339.42, (320.785,29.039), 340.6836, 100.0, 340.6835869036749, -20.58, -20.58, -0.1758, 0.4681, 23.4046, -8.7879, -8.7879
338.28, (322.47,28.406), 339.5436, 100.0, 340.6835718134991, -20.58, -20.58, -0.1758, 0.4681, 23.4046, -8.7879, -8.7879
329.34, (324.259,27.517), 330.6036, 100.0, 330.6035525562159, -30.24, -30.24, -0.255, 0.4301, 21.5052, -12.7486, -12.7486
339.42, (326.059,26.653), 340.6835, 100.0, 340.32353465570856, -22.02, -22.02, -0.1787, 0.467, 23.3489, -8.9348, -8.9348
330.18, (327.867,25.803), 331.4435, 100.0, 331.44352071995945, -28.86, -28.86, -0.2486, 0.4338, 21.6898, -12.4319, -12.4319
329.16, (329.412,24.88), 330.4235, 100.0, 330.42351029727047, -30.84, -30.84, -0.2563, 0.4293, 21.4651, -12.8161, -12.8161
329.16, (331.129,23.855), 330.4235, 100.0, 330.42349358407284, -30.84, -30.84, -0.2563, 0.4293, 21.4651, -12.8161, -12.8161
329.16, (332.847,22.829), 330.4235, 100.0, 330.42347179111533, -30.84, -30.84, -0.2563, 0.4293, 21.4651, -12.8161, -12.8161
318.96, (334.453,21.642), 320.2235, 100.0, 320.2234577240166, -40.02, -40.02, -0.3283, 0.3771, 18.8563, -16.4146, -16.4146
309.54, (335.717,20.364), 310.8034, 100.0, 311.8234409834304, -48.36, -48.36, -0.3799, 0.3251, 16.2561, -18.9931, -18.9931
308.88, (336.975,18.808), 310.1434, 100.0, 310.1434275991034, -51.12, -51.12, -0.3892, 0.3138, 15.6923, -19.4616, -19.4616
299.58, (338.114,17.168), 300.8434, 100.0, 301.6234068191437, -58.62, -58.62, -0.4314, 0.2527, 12.6358, -21.5717, -21.5717
295.98, (339.065,15.408), 297.2434, 100.0, 297.6033903404356, -62.64, -62.64, -0.4481, 0.2218, 11.0924, -22.4044, -22.4044
288.54, (339.718,13.733), 289.8034, 100.0, 289.80337986150084, -71.46, -71.46, -0.4741, 0.159, 7.9492, -23.7025, -23.7025
288.54, (340.354,11.837), 289.8034, 100.0, 289.8033664168401, -71.46, -71.46, -0.4741, 0.159, 7.9492, -23.7025, -23.7025
288.54, (340.99,9.94), 289.8034, 100.0, 289.80335047756034, -71.46, -71.46, -0.4741, 0.159, 7.9492, -23.7025, -23.7025
288.54, (341.626,8.044), 289.8033, 100.0, 289.80332777846957, -71.46, -71.46, -0.4741, 0.159, 7.9492, -23.7025, -23.7025
288.54, (342.262,6.148), 289.8033, 100.0, 289.8033120325848, -71.46, -71.46, -0.4741, 0.159, 7.9492, -23.7025, -23.7025
291.66, (342.848,4.446), 292.9233, 100.0, 292.2632921464206, -70.08, -70.08, -0.4668, 0.1792, 8.9592, -23.3395, -23.3395
296.46, (343.723,2.65), 297.7233, 100.0, 298.3232792462563, -61.92, -61.92, -0.4453, 0.2275, 11.3731, -22.2633, -22.2633
289.86, (344.46,0.792), 291.1233, 100.0, 291.1232637612892, -71.22, -71.22, -0.4703, 0.1699, 8.4931, -23.5131, -23.5131
299.88, (345.216,-0.839), 301.1433, 100.0, 300.1232504548128, -62.22, -62.22, -0.4379, 0.2413, 12.0668, -21.895, -21.895
309.9, (346.348,-2.485), 311.1632, 100.0, 310.4432365710713, -51.96, -51.96, -0.3876, 0.3159, 15.794, -19.3791, -19.3791
320.28, (347.752,-3.905), 321.5432, 100.0, 320.4632226230247, -41.82, -41.82, -0.3267, 0.3785, 18.9249, -16.3355, -16.3355
330.36, (349.387,-5.052), 331.6232, 100.0, 330.96320244137576, -31.56, -31.56, -0.2523, 0.4317, 21.5849, -12.6132, -12.6132
340.5, (351.202,-5.886), 341.7632, 100.0, 341.40318159976414, -20.94, -20.94, -0.1699, 0.4703, 23.5131, -8.4931, -8.4931
350.76, (353.138,-6.379), 352.0232, 100.0, 351.66316652446756, -10.74, -10.74, -0.0834, 0.493, 24.6499, -4.1692, -4.1692
0.66, (355.13,-6.515), 1.9232, 100.0, 1.9231512783149447, -0.36, -0.36, 0.0058, 0.5, 24.9983, 0.288, 0.288
10.92, (356.919,-6.329), 12.1831, 100.0, 11.403138657393411, 9.06, 9.06, 0.088, 0.4922, 24.6095, 4.4013, 4.4013
20.16, (358.841,-5.785), 21.4231, 100.0, 21.123126459024302, 18.9, 18.9, 0.1699, 0.4703, 23.5131, 8.4931, 8.4931
29.7, (360.647,-4.932), 30.9631, 100.0, 30.663113059631137, 28.68, 28.68, 0.2455, 0.4356, 21.7803, 12.2726, 12.2726
38.64, (362.284,-3.787), 39.9031, 100.0, 39.90309465443703, 38.58, 38.58, 0.3122, 0.3905, 19.5271, 15.6106, 15.6106
28.98, (363.782,-2.792), 30.2431, 100.0, 30.543073499480244, 30.48, 30.48, 0.2445, 0.4361, 21.806, 12.227, 12.227
25.02, (365.544,-1.848), 26.2831, 100.0, 26.643053632102756, 26.4, 26.4, 0.2143, 0.4517, 22.5871, 10.7155, 10.7155
18.84, (367.415,-1.143), 20.103, 100.0, 20.103039769985426, 18.84, 18.84, 0.1615, 0.4732, 23.6606, 8.0732, 8.0732
18.84, (369.118,-0.562), 20.103, 100.0, 20.103029297692924, 18.84, 18.84, 0.1615, 0.4732, 23.6606, 8.0732, 8.0732
12.78, (371.028,0.03), 14.043, 100.0, 14.703010945770492, 14.58, 14.58, 0.1162, 0.4863, 24.3153, 5.8107, 5.8107
8.7, (372.999,0.362), 9.963, 100.0, 9.962994912932468, 8.7, 8.7, 0.0756, 0.4942, 24.7123, 3.7815, 3.7815
2.76, (374.984,0.595), 4.023, 100.0, 4.02297540756638, 3.84, 3.84, 0.0241, 0.4994, 24.971, 1.2038, 1.2038
352.62, (376.781,0.518), 354.603, 100.0, 355.38296104692, -5.58, -5.58, -0.0575, 0.4967, 24.8343, -2.8734, -2.8734
342.3, (378.733,0.094), 344.2829, 100.0, 345.36294216335256, -15.9, -15.9, -0.143, 0.4791, 23.9556, -7.1506, -7.1506
332.04, (380.577,-0.673), 334.0229, 100.0, 334.6229248477494, -26.28, -26.28, -0.2298, 0.4441, 22.2034, -11.4895, -11.4895
322.38, (382.25,-1.764), 324.3629, 100.0, 324.3629086818806, -36.96, -36.96, -0.3052, 0.396, 19.8019, -15.2605, -15.2605
312, (383.566,-2.989), 313.9829, 100.0, 314.82289448161777, -46.08, -46.08, -0.3666, 0.34, 16.9988, -18.3314, -18.3314
301.98, (384.773,-4.58), 303.9629, 100.0, 304.322881652563, -56.64, -56.64, -0.4224, 0.2675, 13.3736, -21.1222, -21.1222
291.72, (385.671,-6.364), 293.7029, 100.0, 294.0628595933678, -66.84, -66.84, -0.4633, 0.188, 9.3975, -23.1665, -23.1665
281.76, (386.193,-8.084), 283.7429, 100.0, 284.8228511247908, -76.44, -76.44, -0.4875, 0.1111, 5.5557, -24.3749, -24.3749
274.2, (386.479,-10.063), 276.1828, 100.0, 276.9028374554296, -83.94, -83.94, -0.4982, 0.0429, 2.1441, -24.9079, -24.9079
267.66, (386.472,-12.061), 269.6428, 100.0, 269.642818346702, -92.34, -92.34, -0.4996, -0.0204, -1.0207, -24.9792, -24.9792
273.78, (386.463,-14.06), 275.7628, 100.0, 275.76280271248544, -87.24, -87.24, -0.4989, 0.033, 1.6481, -24.9456, -24.9456
277.68, (386.684,-15.846), 279.6628, 100.0, 279.6627903315709, -82.32, -82.32, -0.4955, 0.0668, 3.341, -24.7757, -24.7757
277.68, (386.951,-17.828), 279.6628, 100.0, 279.6627804974957, -82.32, -82.32, -0.4955, 0.0668, 3.341, -24.7757, -24.7757
277.68, (387.219,-19.81), 279.6628, 100.0, 279.66276484043317, -82.32, -82.32, -0.4955, 0.0668, 3.341, -24.7757, -24.7757
280.92, (387.506,-21.789), 282.9027, 100.0, 282.60274286080744, -80.1, -80.1, -0.4914, 0.0921, 4.6074, -24.5718, -24.5718
285.96, (388.039,-23.715), 287.9427, 100.0, 287.94272763415404, -72.9, -72.9, -0.4807, 0.1375, 6.8742, -24.0363, -24.0363
277.62, (388.405,-25.68), 279.6027, 100.0, 279.60271628393366, -82.38, -82.38, -0.4956, 0.0663, 3.3151, -24.7792, -24.7792
280.86, (388.658,-27.461), 282.8427, 100.0, 282.1226994116239, -80.94, -80.94, -0.4922, 0.088, 4.4013, -24.6095, -24.6095
290.76, (389.194,-29.385), 292.7427, 100.0, 292.02268510403877, -70.62, -70.62, -0.4697, 0.1713, 8.5669, -23.4863, -23.4863
301.02, (390.063,-31.184), 303.0027, 100.0, 302.4026671537713, -60.6, -60.6, -0.4312, 0.2532, 12.6584, -21.5584, -21.5584
311.16, (391.239,-32.798), 313.1427, 100.0, 312.72265461631395, -50.34, -50.34, -0.3788, 0.3263, 16.3157, -18.942, -18.942
321.48, (392.534,-34.045), 323.4626, 100.0, 322.38264147163005, -40.62, -40.62, -0.3187, 0.3853, 19.2628, -15.9356, -15.9356
331.38, (394.189,-35.164), 333.3626, 100.0, 332.64262486040843, -30.3, -30.3, -0.245, 0.4359, 21.7932, -12.2498, -12.2498
341.4, (396.017,-35.97), 343.3826, 100.0, 342.60261017706085, -20.1, -20.1, -0.1659, 0.4717, 23.5835, -8.2958, -8.2958
351.66, (397.958,-36.437), 353.6426, 100.0, 353.28259378130105, -9.66, -9.66, -0.0756, 0.4942, 24.7123, -3.7815, -3.7815
1.56, (399.953,-36.544), 3.5426, 100.0, 3.5425814698350147, 0.54, 0.54, 0.0136, 0.4998, 24.9907, 0.6806, 0.6806
7.5, (401.94,-36.329), 9.4826, 100.0, 9.48256417701162, 7.8, 7.8, 0.0653, 0.4957, 24.7861, 3.2632, 3.2632
357.72, (403.736,-36.25), 359.6974, 100.0, 0.302551111813357, -0.66, -0.66, -0.0136, 0.4998, 24.9907, -0.6806, -0.6806
357.72, (405.735,-36.329), 359.6974, 100.0, 359.69743342691805, -2.28, -2.28, -0.0199, 0.4996, 24.9802, -0.9946, -0.9946
3.96, (407.733,-36.338), 5.9374, 100.0, 5.6374197735910165, 2.82, 2.82, 0.0319, 0.499, 24.949, 1.5959, 1.5959
11.52, (409.713,-36.059), 13.4974, 100.0, 13.497406320335722, 10.5, 10.5, 0.0999, 0.4899, 24.4964, 4.9927, 4.9927
15.42, (411.444,-35.57), 17.3974, 100.0, 18.1173925228042, 17.22, 17.22, 0.139, 0.4803, 24.0146, 6.9496, 6.9496
6, (413.408,-35.205), 7.9774, 100.0, 8.397370879385534, 7.5, 7.5, 0.0559, 0.4969, 24.8432, 2.7954, 2.7954
356.94, (415.406,-35.174), 359.1626, 100.0, 359.16263217134747, -2.7, -2.7, -0.0267, 0.4993, 24.9644, -1.3345, -1.3345
346.86, (417.185,-35.43), 349.0826, 100.0, 349.8626184029191, -11.4, -11.4, -0.107, 0.4884, 24.4205, -5.3513, -5.3513
337.56, (419.091,-36.027), 339.7826, 100.0, 340.14259974978313, -21.06, -21.06, -0.188, 0.4633, 23.1665, -9.3975, -9.3975
336.84, (420.93,-36.813), 339.0626, 100.0, 339.0625809501368, -23.16, -23.16, -0.1967, 0.4597, 22.9853, -9.8325, -9.8325
336.84, (422.769,-37.6), 339.0626, 100.0, 339.0625660312655, -23.16, -23.16, -0.1967, 0.4597, 22.9853, -9.8325, -9.8325
333.36, (424.598,-38.407), 335.5825, 100.0, 335.88254807523623, -25.32, -25.32, -0.2218, 0.4481, 22.4044, -11.0924, -11.0924
326.7, (426.139,-39.335), 328.9225, 100.0, 328.92253943590475, -33.3, -33.3, -0.2745, 0.4179, 20.8952, -13.7256, -13.7256
317.16, (427.728,-40.546), 319.3825, 100.0, 320.4025215042836, -41.04, -41.04, -0.3334, 0.3726, 18.6311, -16.6698, -16.6698
316.44, (429.179,-41.922), 318.6625, 100.0, 318.66250837644515, -43.56, -43.56, -0.3446, 0.3623, 18.1163, -17.2278, -17.2278
316.44, (430.629,-43.3), 318.6625, 100.0, 318.662491470691, -43.56, -43.56, -0.3446, 0.3623, 18.1163, -17.2278, -17.2278
316.44, (431.933,-44.541), 318.6625, 100.0, 318.66247865019585, -43.56, -43.56, -0.3446, 0.3623, 18.1163, -17.2278, -17.2278
326.22, (433.482,-45.801), 328.4425, 100.0, 327.72246277433925, -35.64, -35.64, -0.2832, 0.4121, 20.6032, -14.1602, -14.1602
317.4, (435.065,-47.019), 319.6225, 100.0, 319.92245077839834, -41.28, -41.28, -0.3365, 0.3698, 18.4908, -16.8253, -16.8253
316.44, (436.516,-48.396), 318.6624, 100.0, 318.6624360010292, -43.56, -43.56, -0.3446, 0.3623, 18.1163, -17.2278, -17.2278
320.88, (437.99,-49.746), 323.1024, 100.0, 322.80242057464636, -40.2, -40.2, -0.3175, 0.3863, 19.3128, -15.875, -15.875
326.64, (439.465,-50.777), 328.8624, 100.0, 328.8624068089284, -33.36, -33.36, -0.2749, 0.4176, 20.8808, -13.7474, -13.7474
336.3, (441.218,-51.734), 338.5224, 100.0, 338.22239122492584, -25.08, -25.08, -0.2034, 0.4568, 22.8386, -10.1684, -10.1684
336.66, (443.055,-52.526), 338.8824, 100.0, 338.8823758354806, -23.34, -23.34, -0.1981, 0.4591, 22.9543, -9.9047, -9.9047
336.66, (444.707,-53.239), 338.8824, 100.0, 338.8823605541737, -23.34, -23.34, -0.1981, 0.4591, 22.9543, -9.9047, -9.9047
331.02, (446.524,-54.074), 333.2423, 100.0, 334.08233973238407, -27.06, -27.06, -0.2358, 0.4409, 22.0449, -11.7907, -11.7907
331.08, (448.23,-55.116), 333.3023, 100.0, 332.5223232290198, -30.48, -30.48, -0.2477, 0.4343, 21.7158, -12.3865, -12.3865
336.6, (450.043,-55.958), 338.8223, 100.0, 338.82231144959326, -23.4, -23.4, -0.1986, 0.4589, 22.9439, -9.9287, -9.9287
346.5, (451.939,-56.587), 348.7223, 100.0, 348.7222936609897, -14.52, -14.52, -0.1167, 0.4862, 24.3092, -5.8361, -5.8361
346.8, (453.691,-56.998), 349.0223, 100.0, 349.02227996213566, -13.2, -13.2, -0.1142, 0.4868, 24.3395, -5.7088, -5.7088
355.98, (455.663,-57.32), 358.2023, 100.0, 357.4822612536174, -5.7, -5.7, -0.0413, 0.4983, 24.9145, -2.0659, -2.0659
3.66, (457.661,-57.348), 5.8822, 100.0, 5.522240569226888, 2.28, 2.28, 0.0288, 0.4992, 24.9585, 1.4391, 1.4391
1.56, (459.453,-57.184), 3.7822, 100.0, 4.862228566812028, 3.66, 3.66, 0.023, 0.4995, 24.9735, 1.1515, 1.1515
0.66, (461.452,-57.219), 3.1222, 100.0, 2.3422114496936124, -1.14, -1.14, -0.001, 0.5, 24.9999, -0.0524, -0.0524
6.84, (463.443,-57.048), 9.3022, 100.0, 9.302194294446082, 6.84, 6.84, 0.0595, 0.4964, 24.8221, 2.9774, 2.9774
6.84, (465.429,-56.81), 9.3022, 100.0, 9.302173803346127, 6.84, 6.84, 0.0595, 0.4964, 24.8221, 2.9774, 2.9774
6.84, (467.216,-56.596), 9.3022, 100.0, 9.302156854116687, 6.84, 6.84, 0.0595, 0.4964, 24.8221, 2.9774, 2.9774
6.84, (469.202,-56.357), 9.3021, 100.0, 9.302139937141305, 6.84, 6.84, 0.0595, 0.4964, 24.8221, 2.9774, 2.9774
12.72, (471.178,-56.057), 15.1821, 100.0, 14.762118952835959, 11.22, 11.22, 0.1101, 0.4877, 24.3864, 5.5047, 5.5047
18.72, (472.906,-55.555), 21.1821, 100.0, 20.102100553141405, 16.98, 16.98, 0.1515, 0.4765, 23.8245, 7.5759, 7.5759
27.18, (474.74,-54.764), 29.6421, 100.0, 29.642090598977965, 26.82, 26.82, 0.2284, 0.4448, 22.2394, 11.4197, 11.4197
32.46, (476.496,-53.809), 34.9221, 100.0, 34.502075084126346, 30.9, 30.9, 0.2653, 0.4238, 21.1919, 13.2628, 13.2628
37.68, (477.95,-52.749), 40.1421, 100.0, 39.78205823767557, 37.32, 37.32, 0.3031, 0.3976, 19.8815, 15.1567, 15.1567
47.52, (479.425,-51.402), 49.982, 100.0, 49.56204550287695, 46.08, 46.08, 0.3663, 0.3404, 17.018, 18.3136, 18.3136
37.68, (480.888,-50.042), 40.142, 100.0, 40.86202767943177, 39.24, 39.24, 0.3106, 0.3918, 19.5923, 15.5287, 15.5287
42.36, (482.45,-48.795), 44.822, 100.0, 44.52201240290474, 40.98, 40.98, 0.335, 0.3712, 18.5611, 16.7477, 16.7477
47.28, (483.834,-47.352), 49.742, 100.0, 49.741996500926504, 47.28, 47.28, 0.3673, 0.3392, 16.9604, 18.3669, 18.3669
47.28, (485.055,-46.029), 49.742, 100.0, 49.7419827792554, 47.28, 47.28, 0.3673, 0.3392, 16.9604, 18.3669, 18.3669
47.28, (486.412,-44.56), 49.742, 100.0, 49.741963887278736, 47.28, 47.28, 0.3673, 0.3392, 16.9604, 18.3669, 18.3669
47.28, (487.769,-43.09), 49.7419, 100.0, 49.74194823184241, 47.28, 47.28, 0.3673, 0.3392, 16.9604, 18.3669, 18.3669
52.92, (489.082,-41.584), 55.3819, 100.0, 54.96192956588533, 51.48, 51.48, 0.3967, 0.3044, 15.219, 19.8338, 19.8338
57.3, (490.188,-39.918), 59.7619, 100.0, 59.76191128827181, 57.3, 57.3, 0.4208, 0.2701, 13.506, 21.0378, 21.0378
58.62, (491.159,-38.402), 61.0819, 100.0, 60.12189751611598, 57.3, 57.3, 0.4224, 0.2675, 13.3736, 21.1222, 21.1222
67.32, (492.061,-36.62), 69.7819, 100.0, 69.78188518575635, 66.9, 66.9, 0.4613, 0.1928, 9.6396, 23.0668, 23.0668
67.32, (492.832,-34.775), 69.7819, 100.0, 69.7818655861722, 67.32, 67.32, 0.4613, 0.1928, 9.6396, 23.0668, 23.0668
67.32, (493.603,-32.929), 69.7818, 100.0, 69.78184957405952, 67.32, 67.32, 0.4613, 0.1928, 9.6396, 23.0668, 23.0668
71.7, (494.271,-31.258), 74.1618, 100.0, 73.50183442239869, 69.9, 69.9, 0.4729, 0.1625, 8.1227, 23.6436, 23.6436
77.46, (494.762,-29.321), 79.9218, 100.0, 79.92181782328194, 77.46, 77.46, 0.4881, 0.1086, 5.428, 24.4036, 24.4036
68.1, (495.346,-27.41), 70.5618, 100.0, 70.92179917034593, 69.54, 69.54, 0.4651, 0.1836, 9.1788, 23.254, 23.254
67.38, (496.038,-25.749), 69.8418, 100.0, 69.84178659747587, 67.38, 67.38, 0.4615, 0.1923, 9.6154, 23.0769, 23.0769
67.38, (496.807,-23.903), 69.8418, 100.0, 69.84176897385287, 67.38, 67.38, 0.4615, 0.1923, 9.6154, 23.0769, 23.0769
63.3, (497.6,-22.067), 65.7618, 100.0, 66.42175486667065, 65.04, 65.04, 0.4492, 0.2195, 10.975, 22.4622, 22.4622
57.3, (498.628,-20.353), 59.7617, 100.0, 59.761733268650865, 57.3, 57.3, 0.4208, 0.2701, 13.506, 21.0378, 21.0378
58.62, (499.6,-18.837), 61.0817, 100.0, 60.06171785315126, 57.3, 57.3, 0.4222, 0.2679, 13.3957, 21.1082, 21.1082
67.44, (500.498,-17.054), 69.9017, 100.0, 69.90169533175414, 67.08, 67.08, 0.4617, 0.1918, 9.5913, 23.087, 23.087
65.46, (501.272,-15.21), 67.9217, 100.0, 68.28167660845148, 67.02, 67.02, 0.4561, 0.2048, 10.2401, 22.8066, 22.8066
58.32, (502.153,-13.642), 60.7817, 100.0, 59.641661840237454, 57.54, 57.54, 0.4202, 0.271, 13.55, 21.0094, 21.0094
67.2, (503.058,-11.862), 69.6616, 100.0, 69.66163941887187, 66.84, 66.84, 0.4609, 0.1938, 9.6879, 23.0466, 23.0466
60.36, (503.91,-10.054), 62.8216, 100.0, 63.12162034743258, 61.68, 61.68, 0.4359, 0.245, 12.2498, 21.7932, 21.7932
63.6, (504.915,-8.326), 66.0616, 100.0, 65.7016058503583, 62.52, 62.52, 0.4465, 0.2251, 11.2564, 22.3225, 22.3225
72.72, (505.586,-6.657), 75.1816, 100.0, 74.46158744816667, 70.5, 70.5, 0.4755, 0.1545, 7.7254, 23.7764, 23.7764
77.52, (506.062,-4.716), 79.9816, 100.0, 79.98156655372625, 77.52, 77.52, 0.4882, 0.108, 5.4025, 24.4093, 24.4093
77.52, (506.494,-2.763), 79.9816, 100.0, 79.9815506845012, 77.52, 77.52, 0.4882, 0.108, 5.4025, 24.4093, 24.4093
81.96, (506.885,-0.802), 84.4215, 100.0, 84.42153229320928, 80.94, 80.94, 0.4951, 0.0699, 3.4966, 24.7543, 24.7543
91.5, (506.985,0.994), 93.9615, 100.0, 92.94151770853144, 89.46, 89.46, 0.5, -0.0042, -0.2094, 24.9991, 24.9991
100.08, (506.775,2.981), 102.5415, 100.0, 101.94149938113013, 98.4, 98.4, 0.4932, -0.0824, -4.1176, 24.6586, 24.6586
108.18, (506.259,4.911), 110.6415, 100.0, 110.64147935898579, 108.18, 108.18, 0.475, -0.156, -7.8001, 23.752, 23.752
108.18, (505.697,6.621), 110.6415, 100.0, 110.64146620796063, 108.18, 108.18, 0.475, -0.156, -7.8001, 23.752, 23.752
100.26, (505.175,8.549), 102.7215, 100.0, 103.3814502786535, 101.76, 101.76, 0.4909, -0.0947, -4.736, 24.5473, 24.5473
90.84, (504.979,10.537), 93.3014, 100.0, 93.66143280785725, 92.22, 92.22, 0.4999, -0.0105, -0.5236, 24.9945, 24.9945
87.6, (505.048,12.536), 90.0614, 100.0, 90.06141338659077, 87.6, 87.6, 0.4996, 0.0209, 1.0469, 24.9781, 24.9781
95.88, (505.017,14.334), 98.3414, 100.0, 97.6814015376807, 94.14, 94.14, 0.4979, -0.0455, -2.2745, 24.8963, 24.8963
97.62, (504.757,16.317), 100.0814, 100.0, 100.08138622137473, 97.62, 97.62, 0.4956, -0.0663, -3.3151, 24.7792, 24.7792
103.92, (504.428,18.288), 106.3814, 100.0, 105.72136830176001, 102.6, 102.6, 0.4867, -0.1147, -5.7343, 24.3335, 24.3335
113.22, (503.794,20.183), 115.6813, 100.0, 115.32134723413033, 111.84, 111.84, 0.4607, -0.1942, -9.712, 23.0364, 23.0364
119.46, (502.883,21.962), 121.9213, 100.0, 121.62132817009848, 118.38, 118.38, 0.4366, -0.2436, -12.1813, 21.8316, 21.8316
128.22, (501.868,23.446), 130.6813, 100.0, 130.68131494405876, 127.5, 127.5, 0.3928, -0.3093, -15.4671, 19.641, 19.641
133.56, (500.592,24.985), 136.0213, 100.0, 135.72129974450337, 132.18, 132.18, 0.3641, -0.3427, -17.1328, 18.2063, 18.2063
135, (499.138,26.358), 137.4613, 100.0, 137.46127852615365, 136.02, 136.02, 0.3536, -0.3536, -17.6777, 17.6777, 17.6777
130.98, (497.965,27.722), 133.4413, 100.0, 132.42126315291324, 128.94, 128.94, 0.3832, -0.3211, -16.0563, 19.1623, 19.1623
140.58, (496.537,29.118), 143.0412, 100.0, 142.3212441288115, 138.84, 138.84, 0.3223, -0.3822, -19.1118, 16.1164, 16.1164
149.76, (494.896,30.258), 152.2212, 100.0, 151.56123015003612, 148.74, 148.74, 0.2568, -0.429, -21.4516, 12.8385, 12.8385
159.18, (493.089,31.109), 161.6412, 100.0, 161.28121038008376, 158.46, 158.46, 0.1806, -0.4662, -23.3112, 9.0325, 9.0325
168.84, (491.165,31.647), 171.3012, 100.0, 171.30119325687073, 168.18, 168.18, 0.0968, -0.4905, -24.5273, 4.8387, 4.8387
178.68, (489.379,31.85), 181.1412, 100.0, 180.12117959067544, 176.64, 176.64, 0.0204, -0.4996, -24.9792, 1.0207, 1.0207
188.16, (487.384,31.756), 190.6212, 100.0, 189.78116359180433, -173.76, -173.76, -0.0637, -0.4959, -24.7963, -3.1853, -3.1853
197.4, (485.432,31.331), 199.8611, 100.0, 199.50114417281262, -164.04, -164.04, -0.1465, -0.4781, -23.9025, -7.326, -7.326
206.76, (483.581,30.58), 209.2211, 100.0, 208.86112877046963, -154.62, -154.62, -0.2223, -0.4479, -22.3928, -11.1159, -11.1159
216.18, (481.881,29.531), 218.6411, 100.0, 218.64110586272585, -144.84, -144.84, -0.2952, -0.4036, -20.1792, -14.7581, -14.7581
225.54, (480.379,28.213), 228.0011, 100.0, 228.001088000008, -135.48, -135.48, -0.3569, -0.3502, -17.5103, -17.8435, -17.8435
235.02, (479.236,26.824), 237.4811, 100.0, 236.88107568563274, -126.54, -126.54, -0.4067, -0.2909, -14.546, -20.3326, -20.3326
244.5, (478.228,25.1), 246.9611, 100.0, 246.30105156566523, -117.24, -117.24, -0.4488, -0.2204, -11.022, -22.4392, -22.4392
253.74, (477.521,23.231), 256.201, 100.0, 256.2010309135743, -107.64, -107.64, -0.48, -0.14, -6.9999, -24, -24
263.34, (477.141,21.27), 265.801, 100.0, 265.801016531466, -97.74, -97.74, -0.4966, -0.058, -2.8994, -24.8313, -24.8313
272.52, (477.083,19.473), 274.981, 100.0, 274.26099678133914, -89.28, -89.28, -0.4998, 0.0157, 0.7853, -24.9877, -24.9877
282.12, (477.347,17.493), 284.581, 100.0, 283.8009776234373, -78.96, -78.96, -0.4902, 0.0983, 4.9158, -24.5119, -24.5119
291.42, (477.939,15.585), 293.881, 100.0, 293.88096003017944, -69, -69, -0.4655, 0.1826, 9.13, -23.2732, -23.2732
281.22, (478.442,13.859), 283.6809, 100.0, 284.7009476591645, -76.68, -76.68, -0.4886, 0.106, 5.3002, -24.4317, -24.4317
290.7, (478.966,11.931), 293.1609, 100.0, 292.08092874216516, -71.46, -71.46, -0.471, 0.1679, 8.3945, -23.5485, -23.5485
299.82, (479.8,10.116), 302.2809, 100.0, 301.56091119978043, -62.04, -62.04, -0.4369, 0.2432, 12.1584, -21.8443, -21.8443
309.42, (480.931,8.469), 311.8809, 100.0, 311.52089461709494, -51.9, -51.9, -0.3882, 0.3151, 15.7533, -19.4122, -19.4122
318.48, (482.174,7.17), 320.9409, 100.0, 319.920880343299, -43.26, -43.26, -0.3381, 0.3684, 18.4201, -16.9026, -16.9026
322.26, (483.737,5.923), 324.7209, 100.0, 324.72086517032113, -37.74, -37.74, -0.306, 0.3954, 19.7699, -15.302, -15.302
322.26, (485.318,4.699), 324.7209, 100.0, 324.72085144815475, -37.74, -37.74, -0.306, 0.3954, 19.7699, -15.302, -15.302
314.28, (486.823,3.384), 316.7408, 100.0, 316.7408310458533, -44.58, -44.58, -0.358, 0.3491, 17.4541, -17.8984, -17.8984
312.18, (488.035,2.054), 314.6408, 100.0, 314.64082153725957, -47.82, -47.82, -0.3705, 0.3357, 16.7865, -18.526, -18.526
321.96, (489.488,0.683), 324.4208, 100.0, 323.76080215172715, -39.72, -39.72, -0.3126, 0.3902, 19.5108, -15.6311, -15.6311
315.3, (491.016,-0.605), 317.7608, 100.0, 318.12078707771377, -43.26, -43.26, -0.3495, 0.3576, 17.8801, -17.4729, -17.4729
312.06, (492.367,-2.08), 314.5208, 100.0, 314.52077463268137, -47.94, -47.94, -0.3712, 0.335, 16.7477, -18.5611, -18.5611
309.96, (493.569,-3.419), 312.4208, 100.0, 313.3807628701875, -47.94, -47.94, -0.3778, 0.3275, 16.3751, -18.8906, -18.8906
300.72, (494.726,-5.047), 303.1807, 100.0, 303.90074847252777, -58.2, -58.2, -0.4266, 0.2608, 13.0401, -21.3297, -21.3297
291.42, (495.594,-6.846), 293.8807, 100.0, 294.18073584635306, -67.92, -67.92, -0.4645, 0.185, 9.2518, -23.2251, -23.2251
281.7, (496.147,-8.766), 284.1607, 100.0, 284.16071677752325, -77.64, -77.64, -0.4896, 0.1014, 5.0697, -24.4806, -24.4806
272.04, (496.38,-10.749), 274.5007, 100.0, 274.5007006411816, -86.94, -86.94, -0.4997, 0.0178, 0.8899, -24.9842, -24.9842
262.74, (496.306,-12.546), 265.2007, 100.0, 265.9206847378127, -95.4, -95.4, -0.4967, -0.0569, -2.8474, -24.8373, -24.8373
261.6, (496.017,-14.525), 264.0607, 100.0, 264.06067106091353, -98.4, -98.4, -0.4946, -0.073, -3.6521, -24.7318, -24.7318
262.74, (495.727,-16.504), 265.2007, 100.0, 264.8406544778768, -98.4, -98.4, -0.4956, -0.0663, -3.3151, -24.7792, -24.7792
271.74, (495.653,-18.5), 274.2006, 100.0, 274.2006418584769, -88.62, -88.62, -0.4998, 0.0152, 0.7591, -24.9885, -24.9885
271.74, (495.708,-20.299), 274.2006, 100.0, 274.20062485709605, -88.26, -88.26, -0.4998, 0.0152, 0.7591, -24.9885, -24.9885
274.98, (495.784,-22.298), 277.4406, 100.0, 276.78060755726995, -86.88, -86.88, -0.4986, 0.0377, 1.8832, -24.929, -24.929
284.16, (496.125,-24.266), 286.6206, 100.0, 286.6205918338503, -77.22, -77.22, -0.4848, 0.1223, 6.1158, -24.2404, -24.2404
292.32, (496.711,-25.966), 294.7806, 100.0, 294.78057203654066, -67.68, -67.68, -0.4625, 0.1899, 9.4945, -23.1269, -23.1269
299.76, (497.564,-27.772), 302.2206, 100.0, 302.2205600198718, -61.32, -61.32, -0.4341, 0.2482, 12.4092, -21.7028, -21.7028
308.28, (498.566,-29.266), 310.7405, 100.0, 309.9605431529207, -53.58, -53.58, -0.3967, 0.3044, 15.219, -19.8338, -19.8338
312.54, (499.892,-30.763), 315.0005, 100.0, 315.00052361540827, -47.46, -47.46, -0.3684, 0.3381, 16.9026, -18.4201, -18.4201
312.54, (501.244,-32.237), 315.0005, 100.0, 315.0005067385132, -47.46, -47.46, -0.3684, 0.3381, 16.9026, -18.4201, -18.4201
312.54, (502.596,-33.71), 315.0005, 100.0, 315.0004941706575, -47.46, -47.46, -0.3684, 0.3381, 16.9026, -18.4201, -18.4201
316.8, (503.975,-35.158), 319.2605, 100.0, 319.26048004390543, -44.28, -44.28, -0.3423, 0.3645, 18.2242, -17.1137, -17.1137
322.68, (505.533,-36.41), 325.1405, 100.0, 325.14046064098466, -37.32, -37.32, -0.3031, 0.3976, 19.8815, -15.1567, -15.1567
322.68, (506.965,-37.501), 325.1404, 100.0, 325.14044305970896, -37.32, -37.32, -0.3031, 0.3976, 19.8815, -15.1567, -15.1567
322.68, (508.555,-38.714), 325.1404, 100.0, 325.1404314135551, -37.32, -37.32, -0.3031, 0.3976, 19.8815, -15.1567, -15.1567
327.48, (510.167,-39.897), 329.9404, 100.0, 329.28041994056207, -34.26, -34.26, -0.2736, 0.4185, 20.9239, -13.6818, -13.6818
333, (511.923,-40.853), 335.4604, 100.0, 335.4603997924354, -27, -27, -0.227, 0.4455, 22.2752, -11.3498, -11.3498
333, (513.705,-41.761), 335.4604, 100.0, 335.46037918905296, -27, -27, -0.227, 0.4455, 22.2752, -11.3498, -11.3498
326.82, (515.446,-42.741), 329.2804, 100.0, 329.28036190658116, -32.52, -32.52, -0.2736, 0.4185, 20.9239, -13.6818, -13.6818
322.8, (516.892,-43.813), 325.2603, 100.0, 325.26034856535915, -37.2, -37.2, -0.3023, 0.3983, 19.9132, -15.115, -15.115
312.72, (518.375,-45.152), 315.1803, 100.0, 315.96033096873015, -45.48, -45.48, -0.3627, 0.3442, 17.2089, -18.1344, -18.1344
319.68, (519.786,-46.566), 322.1403, 100.0, 321.4803160128747, -42.06, -42.06, -0.3279, 0.3775, 18.8735, -16.3949, -16.3949
322.8, (521.37,-47.788), 325.2603, 100.0, 325.2603042277558, -37.2, -37.2, -0.3023, 0.3983, 19.9132, -15.115, -15.115
331.32, (523.038,-48.886), 333.7803, 100.0, 333.7802874621889, -29.82, -29.82, -0.24, 0.4387, 21.9328, -11.9979, -11.9979
325.44, (524.601,-49.776), 327.9003, 100.0, 329.04027336789477, -32.28, -32.28, -0.2754, 0.4173, 20.8664, -13.7693, -13.7693
329.7, (526.25,-50.906), 332.1603, 100.0, 331.5602580188826, -31.98, -31.98, -0.2568, 0.429, 21.4516, -12.8385, -12.8385
339.12, (528.053,-51.767), 341.5802, 100.0, 341.2202406367414, -22.32, -22.32, -0.1811, 0.466, 23.3018, -9.0569, -9.0569
343.68, (529.963,-52.359), 346.1402, 100.0, 346.1402279836488, -16.32, -16.32, -0.1405, 0.4799, 23.9927, -7.025, -7.025
343.68, (531.69,-52.865), 346.1402, 100.0, 346.14020949476145, -16.32, -16.32, -0.1405, 0.4799, 23.9927, -7.025, -7.025
343.68, (533.609,-53.427), 346.1402, 100.0, 346.1401980456915, -16.32, -16.32, -0.1405, 0.4799, 23.9927, -7.025, -7.025
348.06, (535.537,-53.959), 350.5202, 100.0, 349.80018091922915, -13.8, -13.8, -0.1096, 0.4878, 24.3922, -5.4791, -5.4791
355.62, (537.517,-54.226), 358.0802, 100.0, 357.72016437949475, -5.82, -5.82, -0.0413, 0.4983, 24.9145, -2.0659, -2.0659
4.08, (539.515,-54.198), 6.5402, 100.0, 6.54015065704691, 4.08, 4.08, 0.0356, 0.4987, 24.9366, 1.7787, 1.7787
4.08, (541.31,-54.07), 6.5401, 100.0, 6.540135542218364, 4.08, 4.08, 0.0356, 0.4987, 24.9366, 1.7787, 1.7787
4.08, (543.305,-53.928), 6.5401, 100.0, 6.5401152478580435, 4.08, 4.08, 0.0356, 0.4987, 24.9366, 1.7787, 1.7787
357.36, (545.304,-53.947), 0.2999, 100.0, 0.2998896127860813, -2.64, -2.64, -0.023, 0.4995, 24.9735, -1.1515, -1.1515
357.36, (547.102,-54.03), 0.2999, 100.0, 0.2998759423938462, -2.64, -2.64, -0.023, 0.4995, 24.9735, -1.1515, -1.1515
348.6, (549.088,-54.248), 351.6601, 100.0, 352.3201152419335, -9.84, -9.84, -0.0932, 0.4912, 24.5621, -4.6588, -4.6588
344.34, (551.035,-54.702), 347.4001, 100.0, 347.76009542327307, -14.22, -14.22, -0.1319, 0.4823, 24.1139, -6.5968, -6.5968
336.9, (552.906,-55.404), 339.9601, 100.0, 339.9600862089413, -23.1, -23.1, -0.1962, 0.4599, 22.9955, -9.8084, -9.8084
327, (554.496,-56.244), 330.0601, 100.0, 331.26006795835235, -31.08, -31.08, -0.2635, 0.4249, 21.2473, -13.1739, -13.1739
332.88, (556.199,-57.291), 335.9401, 100.0, 335.16005506531826, -28.92, -28.92, -0.234, 0.4419, 22.0941, -11.6982, -11.6982
336.96, (558.026,-58.102), 340.02, 100.0, 340.02004036168955, -23.04, -23.04, -0.1957, 0.4601, 23.0058, -9.7843, -9.7843
336.96, (559.867,-58.884), 340.02, 100.0, 340.0200178067304, -23.04, -23.04, -0.1957, 0.4601, 23.0058, -9.7843, -9.7843
336.96, (561.707,-59.667), 340.02, 100.0, 340.0200054002989, -23.04, -23.04, -0.1957, 0.4601, 23.0058, -9.7843, -9.7843
337.68, (563.364,-60.372), 340.74, 100.0, 340.0199864085039, -23.04, -23.04, -0.1957, 0.4601, 23.0058, -9.7843, -9.7843
346.98, (565.271,-60.966), 350.04, 100.0, 350.03996696602263, -13.68, -13.68, -0.1126, 0.4871, 24.3573, -5.6323, -5.6323
346.98, (567.219,-61.416), 350.0399, 100.0, 350.0399450090469, -13.02, -13.02, -0.1126, 0.4871, 24.3573, -5.6323, -5.6323
351.78, (569.177,-61.825), 354.8399, 100.0, 354.4799225234394, -9.72, -9.72, -0.0746, 0.4944, 24.7202, -3.7298, -3.7298
352.98, (570.969,-61.983), 356.7599, 100.0, 357.5399111212003, -5.16, -5.16, -0.0543, 0.497, 24.8519, -2.7173, -2.7173
346.2, (572.929,-62.374), 349.9799, 100.0, 349.97989477035804, -13.8, -13.8, -0.1193, 0.4856, 24.2784, -5.9633, -5.9633
346.2, (574.871,-62.851), 349.9799, 100.0, 349.9798758803934, -13.8, -13.8, -0.1193, 0.4856, 24.2784, -5.9633, -5.9633
350.94, (576.625,-63.251), 354.7199, 100.0, 353.75986324059807, -11.1, -11.1, -0.087, 0.4924, 24.6187, -4.3498, -4.3498
356.28, (578.616,-63.436), 0.0598, 100.0, 0.059843558693775105, -3.72, -3.72, -0.0324, 0.4989, 24.9473, -1.622, -1.622
356.28, (580.612,-63.566), 0.0598, 100.0, 0.05982211390818015, -3.72, -3.72, -0.0324, 0.4989, 24.9473, -1.622, -1.622
356.28, (582.607,-63.695), 0.0598, 100.0, 0.059802176075625976, -3.72, -3.72, -0.0324, 0.4989, 24.9473, -1.622, -1.622
356.28, (584.603,-63.825), 0.0598, 100.0, 0.059781935361870694, -3.72, -3.72, -0.0324, 0.4989, 24.9473, -1.622, -1.622
356.28, (586.399,-63.942), 0.0598, 100.0, 0.05976696503405628, -3.72, -3.72, -0.0324, 0.4989, 24.9473, -1.622, -1.622
346.74, (588.377,-64.221), 351.7202, 100.0, 352.44021931107187, -11.46, -11.46, -0.1086, 0.4881, 24.4036, -5.428, -5.428
345.06, (590.311,-64.731), 350.0402, 100.0, 350.0402064261833, -14.94, -14.94, -0.1289, 0.4831, 24.1549, -6.4452, -6.4452
345.06, (592.05,-65.195), 350.0402, 100.0, 350.0401902060989, -14.94, -14.94, -0.1289, 0.4831, 24.1549, -6.4452, -6.4452
351.12, (593.998,-65.642), 356.1002, 100.0, 356.1001814214682, -10.02, -10.02, -0.0772, 0.494, 24.7003, -3.8591, -3.8591
357.18, (595.99,-65.819), 2.1602, 100.0, 2.160167689055928, -3.9, -3.9, -0.0246, 0.4994, 24.9697, -1.23, -1.23
4.62, (597.787,-65.744), 9.6002, 100.0, 10.320153600764797, 5.7, 5.7, 0.0465, 0.4978, 24.8915, 2.3266, 2.3266
356.04, (599.784,-65.742), 0.4201, 100.0, 0.42014086122445937, -3.3, -3.3, -0.0345, 0.4988, 24.9403, -1.7265, -1.7265
350.22, (601.773,-65.941), 355.0799, 100.0, 355.439860550268, -8.4, -8.4, -0.0818, 0.4933, 24.6629, -4.0918, -4.0918
345.42, (603.717,-66.411), 350.2798, 100.0, 350.27984127100274, -14.58, -14.58, -0.1259, 0.4839, 24.1949, -6.2933, -6.2933
353.52, (605.48,-66.764), 358.3798, 100.0, 357.65983085739884, -8.28, -8.28, -0.0627, 0.4961, 24.8029, -3.1333, -3.1333
1.86, (607.476,-66.862), 6.7198, 100.0, 6.059813028955679, 0.18, 0.18, 0.0105, 0.4999, 24.9945, 0.5236, 0.5236
10.44, (609.462,-66.643), 15.2998, 100.0, 15.299798009758613, 9.42, 9.42, 0.0906, 0.4917, 24.5861, 4.5301, 4.5301
15.72, (611.204,-66.194), 20.5798, 100.0, 20.579787564875502, 15.72, 15.72, 0.1355, 0.4813, 24.0649, 6.7734, 6.7734
15.72, (613.129,-65.652), 20.5798, 100.0, 20.57976505950413, 15.72, 15.72, 0.1355, 0.4813, 24.0649, 6.7734, 6.7734
15.72, (615.055,-65.11), 20.5797, 100.0, 20.579747193672674, 15.72, 15.72, 0.1355, 0.4813, 24.0649, 6.7734, 6.7734
6.36, (617.013,-64.718), 11.2197, 100.0, 11.519734125985927, 7.8, 7.8, 0.058, 0.4966, 24.8313, 2.8994, 2.8994
5.7, (619.003,-64.52), 10.5597, 100.0, 10.55971319457653, 5.7, 5.7, 0.0497, 0.4975, 24.8764, 2.483, 2.483
357.72, (620.8,-64.445), 2.2197, 100.0, 3.0596980725552902, -0.42, -0.42, -0.0126, 0.4998, 24.9921, -0.6283, -0.6283
3.36, (622.798,-64.482), 7.8597, 100.0, 7.559677937613157, 2.1, 2.1, 0.0267, 0.4993, 24.9644, 1.3345, 1.3345
12.72, (624.579,-64.232), 17.2197, 100.0, 16.499661258967546, 10.92, 10.92, 0.104, 0.4891, 24.4537, 5.1978, 5.1978
16.56, (626.503,-63.687), 21.0596, 100.0, 21.05964288068973, 16.56, 16.56, 0.1425, 0.4793, 23.963, 7.1255, 7.1255
18.06, (628.419,-63.113), 22.5596, 100.0, 22.199627635430126, 16.56, 16.56, 0.152, 0.4763, 23.8165, 7.6008, 7.6008
26.76, (630.254,-62.325), 31.2596, 100.0, 31.259611455042982, 26.76, 26.76, 0.2251, 0.4465, 22.3225, 11.2564, 11.2564
26.76, (631.862,-61.515), 31.2596, 100.0, 31.25959973918937, 26.76, 26.76, 0.2251, 0.4465, 22.3225, 11.2564, 11.2564
16.92, (633.711,-60.76), 21.4196, 100.0, 22.199577930611188, 18.66, 18.66, 0.152, 0.4763, 23.8165, 7.6008, 7.6008
25.56, (635.583,-60.062), 30.0596, 100.0, 29.279563141238903, 23.76, 23.76, 0.2096, 0.454, 22.6981, 10.4784, 10.4784
35.1, (637.311,-59.06), 39.5995, 100.0, 39.17954859158079, 33.54, 33.54, 0.2845, 0.4112, 20.5586, 14.2248, 14.2248
29.4, (638.8,-58.051), 33.8995, 100.0, 34.85953141829255, 31.44, 31.44, 0.2527, 0.4314, 21.5717, 12.6358, 12.6358
26.7, (640.579,-57.138), 31.1995, 100.0, 31.199519550686716, 26.7, 26.7, 0.2247, 0.4467, 22.3343, 11.233, 11.233
31.68, (642.345,-56.202), 36.1795, 100.0, 35.819496652399735, 30.18, 30.18, 0.2599, 0.4271, 21.3569, 12.9954, 12.9954
36.96, (643.808,-55.154), 41.4595, 100.0, 41.45948543499114, 36.96, 36.96, 0.3006, 0.3995, 19.9764, 15.0314, 15.0314
36.96, (645.406,-53.952), 41.4595, 100.0, 41.4594735199535, 36.96, 36.96, 0.3006, 0.3995, 19.9764, 15.0314, 15.0314
32.64, (647.024,-52.776), 37.1395, 100.0, 37.49945776289563, 34.08, 34.08, 0.2723, 0.4193, 20.9668, 13.616, 13.616
30.72, (648.769,-51.8), 35.2194, 100.0, 34.85944028822385, 29.34, 29.34, 0.2527, 0.4314, 21.5717, 12.6358, 12.6358
39.84, (650.232,-50.755), 44.3394, 100.0, 43.55942333896895, 38.1, 38.1, 0.3151, 0.3882, 19.4122, 15.7533, 15.7533
49.26, (651.653,-49.351), 53.7594, 100.0, 53.03940722914137, 47.82, 47.82, 0.3747, 0.331, 16.5524, 18.7355, 18.7355
56.82, (652.716,-47.9), 61.3194, 100.0, 61.67939399653491, 57.18, 57.18, 0.4202, 0.271, 13.55, 21.0094, 21.0094
47.1, (653.939,-46.322), 51.5994, 100.0, 51.95937494513153, 48.54, 48.54, 0.3684, 0.3381, 16.9026, 18.4201, 18.4201
47.1, (655.301,-44.857), 51.5994, 100.0, 51.599362928985556, 47.1, 47.1, 0.3663, 0.3404, 17.018, 18.3136, 18.3136
47.1, (656.662,-43.392), 51.5994, 100.0, 51.59935173518857, 47.1, 47.1, 0.3663, 0.3404, 17.018, 18.3136, 18.3136
47.1, (657.888,-42.073), 51.5993, 100.0, 51.59933383936862, 47.1, 47.1, 0.3663, 0.3404, 17.018, 18.3136, 18.3136
47.1, (659.249,-40.608), 51.5993, 100.0, 51.59932187312384, 47.1, 47.1, 0.3663, 0.3404, 17.018, 18.3136, 18.3136
56.88, (660.482,-39.037), 61.3793, 100.0, 61.01930477337119, 55.8, 55.8, 0.417, 0.2758, 13.7911, 20.852, 20.852
57.24, (661.564,-37.355), 61.7393, 100.0, 61.73929039592502, 57.24, 57.24, 0.4205, 0.2706, 13.528, 21.0236, 21.0236
66.96, (662.495,-35.588), 71.4593, 100.0, 71.15927638105487, 65.94, 65.94, 0.4591, 0.1981, 9.9047, 22.9543, 22.9543
59.58, (663.271,-33.965), 64.0793, 100.0, 65.15925641363062, 61.62, 61.62, 0.4359, 0.245, 12.2498, 21.7932, 21.7932
57.12, (664.345,-32.278), 61.6192, 100.0, 61.619241678810894, 57.12, 57.12, 0.4199, 0.2714, 13.572, 20.9952, 20.9952
66.96, (665.289,-30.518), 71.4592, 100.0, 71.09922443077681, 65.58, 65.58, 0.4589, 0.1986, 9.9287, 22.9439, 22.9439
70.08, (666.05,-28.669), 74.5792, 100.0, 73.79920768318391, 68.4, 68.4, 0.4677, 0.1767, 8.8369, 23.3861, 23.3861
77.46, (666.572,-26.74), 81.9592, 100.0, 81.95919028638438, 77.46, 77.46, 0.4881, 0.1086, 5.428, 24.4036, 24.4036
84.18, (666.926,-24.773), 88.6792, 100.0, 88.31917463737682, 82.68, 82.68, 0.4971, 0.0538, 2.6913, 24.8547, 24.8547
87.72, (667.016,-22.976), 92.2192, 100.0, 92.2191673502367, 87.72, 87.72, 0.4996, 0.0199, 0.9946, 24.9802, 24.9802
88.44, (667.096,-20.977), 92.9392, 100.0, 92.21915517724824, 87.72, 87.72, 0.4996, 0.0199, 0.9946, 24.9802, 24.9802
98.04, (666.973,-18.984), 102.5391, 100.0, 102.53913856232157, 97.26, 97.26, 0.4951, -0.0699, -3.4966, 24.7543, 24.7543
108.06, (666.522,-17.038), 112.5591, 100.0, 112.1991219974606, 106.62, 106.62, 0.4763, -0.152, -7.6008, 23.8165, 23.8165
98.88, (666.053,-15.096), 103.3791, 100.0, 103.37910105960876, 99.96, 99.96, 0.494, -0.0772, -3.8591, 24.7003, 24.7003
90.9, (665.876,-13.306), 95.3991, 100.0, 96.41908773424319, 92.94, 92.94, 0.4997, -0.0168, -0.8376, 24.986, 24.986
87.9, (665.93,-11.307), 92.3991, 100.0, 92.3990662648669, 87.9, 87.9, 0.4997, 0.0183, 0.9161, 24.9832, 24.9832
87.9, (666.003,-9.309), 92.399, 100.0, 92.39904895484975, 87.9, 87.9, 0.4997, 0.0183, 0.9161, 24.9832, 24.9832
87.9, (666.076,-7.31), 92.399, 100.0, 92.39903293986946, 87.9, 87.9, 0.4997, 0.0183, 0.9161, 24.9832, 24.9832
87.9, (666.142,-5.511), 92.399, 100.0, 92.39901253627251, 87.9, 87.9, 0.4997, 0.0183, 0.9161, 24.9832, 24.9832
87.9, (666.215,-3.513), 92.399, 100.0, 92.39899810404292, 87.9, 87.9, 0.4997, 0.0183, 0.9161, 24.9832, 24.9832
78.66, (666.445,-1.529), 83.159, 100.0, 83.158982751856, 79.68, 79.68, 0.4902, 0.0983, 4.9158, 24.5119, 24.5119
69.54, (666.923,0.205), 74.039, 100.0, 75.11896424699087, 71.64, 71.64, 0.4717, 0.1659, 8.2958, 23.5835, 23.5835
60.3, (667.754,2.022), 64.7989, 100.0, 65.45894263263426, 61.92, 61.92, 0.4371, 0.2427, 12.1355, 21.857, 21.857
57.48, (668.82,3.714), 61.9789, 100.0, 61.978925429941846, 57.48, 57.48, 0.4216, 0.2688, 13.4398, 21.0801, 21.0801
57.48, (669.787,5.232), 61.9789, 100.0, 61.978908395922026, 57.48, 57.48, 0.4216, 0.2688, 13.4398, 21.0801, 21.0801
49.14, (670.955,6.853), 53.6389, 100.0, 54.3588947830904, 50.88, 50.88, 0.3822, 0.3223, 16.1164, 19.1118, 19.1118
55.32, (672.223,8.397), 59.8189, 100.0, 59.51887829101468, 53.88, 53.88, 0.4097, 0.2866, 14.3323, 20.4838, 20.4838
57.42, (673.198,9.91), 61.9189, 100.0, 61.91886438150847, 57.42, 57.42, 0.4213, 0.2692, 13.4619, 21.066, 21.066
67.14, (674.131,11.676), 71.6388, 100.0, 71.33884558873079, 65.7, 65.7, 0.4597, 0.1967, 9.8325, 22.9853, 22.9853
63.3, (674.929,13.509), 67.7988, 100.0, 67.79882521895573, 64.5, 64.5, 0.4467, 0.2247, 11.233, 22.3343, 22.3343
60.72, (675.844,15.058), 65.2188, 100.0, 64.55880997851976, 58.98, 58.98, 0.4333, 0.2495, 12.4773, 21.6637, 21.6637
70.08, (676.674,16.876), 74.5788, 100.0, 74.21879196319408, 68.7, 68.7, 0.469, 0.1733, 8.6652, 23.4502, 23.4502
79.44, (677.189,18.806), 83.9388, 100.0, 83.57877593222285, 78, 78, 0.4909, 0.0947, 4.736, 24.5473, 24.5473
88.74, (677.378,20.795), 93.2388, 100.0, 92.87875305841231, 87.72, 87.72, 0.4998, 0.0141, 0.7068, 24.99, 24.99
98.28, (677.232,22.787), 102.7787, 100.0, 102.41873465432009, 97.92, 97.92, 0.4952, -0.0689, -3.4448, 24.7615, 24.7615
