Rotation, Location, Gyro Rotation, Sensor Optical Flow, Battery Level, Yaw, Pitch, Roll, Vy, Vx, AccX, AccY
0, (0.184,0), 360, 100.0, 360.0000026666121, 0, 0, 0, 0.021, 1.05, 0, 0
0, (0.184,0), 360, 100.0, 359.99999008390563, 0, 0, 0, 0, 0, 0, 0
0, (0.184,0), 360, 100.0, 359.9999759176436, 0, 0, 0, 0, 0, 0, 0
0, (0.184,0), 360, 100.0, 359.9999613873839, 0, 0, 0, 0, 0, 0, 0
0, (0.184,0), 359.9999, 100.0, 359.9999430391846, 0, 0, 0, 0, 0, 0, 0
0, (0.184,0), 359.9999, 100.0, 359.99992823640935, 0, 0, 0, 0, 0, 0, 0
0, (0.184,0), 359.9999, 100.0, 359.9999157124979, 0, 0, 0, 0, 0, 0, 0
0, (0.184,0), 359.9999, 100.0, 359.999898831727, 0, 0, 0, 0, 0, 0, 0
0, (0.184,0), 359.9999, 100.0, 359.99988007663086, 0, 0, 0, 0, 0, 0, 0
0, (0.184,0), 359.9999, 100.0, 359.999862711993, 0, 0, 0, 0, 0, 0, 0
0, (0.184,0), 359.9999, 100.0, 359.99985086731783, 0, 0, 0, 0, 0, 0, 0
0, (0.184,0), 359.9998, 100.0, 359.9998329940132, 0, 0, 0, 0, 0, 0, 0
0, (0.184,0), 359.9998, 100.0, 359.99981677884097, 0, 0, 0, 0, 0, 0, 0
0, (0.184,0), 359.9998, 100.0, 359.99980475845376, 0, 0, 0, 0, 0, 0, 0
0, (0.184,0), 359.9998, 100.0, 359.99978884395364, 0, 0, 0, 0, 0, 0, 0
0, (0.184,0), 359.9998, 100.0, 359.9997671127556, 0, 0, 0, 0, 0, 0, 0
0, (0.184,0), 359.9998, 100.0, 359.999752864941, 0, 0, 0, 0, 0, 0, 0
Rotation, Location, Gyro Rotation, Sensor Optical Flow, Battery Level, Yaw, Pitch, Roll, Vy, Vx, AccX, AccY
0, (0.202,0), 360, 100.0, 359.99999730198647, 0, 0, 0, 0.052, 2.6, 0, 0
0, (0.22,0), 360, 100.0, 359.99998157424767, 0, 0, 0, 0, 0, 0, 0
0, (0.22,0), 360, 100.0, 359.9999688616275, 0, 0, 0, 0, 0, 0, 0
0, (0.22,0), 360, 100.0, 359.99995553703195, 0, 0, 0, 0, 0, 0, 0
0, (0.22,0), 359.9999, 100.0, 359.99993499318686, 0, 0, 0, 0, 0, 0, 0
0, (0.22,0), 359.9999, 100.0, 359.9999244177316, 0, 0, 0, 0, 0, 0, 0
0, (0.22,0), 359.9999, 100.0, 359.99990857015564, 0, 0, 0, 0, 0, 0, 0
0, (0.22,0), 359.9999, 100.0, 359.99989114779805, 0, 0, 0, 0, 0, 0, 0
0, (0.22,0), 359.9999, 100.0, 359.9998733442503, 0, 0, 0, 0, 0, 0, 0
0, (0.22,0), 359.9999, 100.0, 359.9998607717013, 0, 0, 0, 0, 0, 0, 0
0, (0.22,0), 359.9998, 100.0, 359.99984672975694, 0, 0, 0, 0, 0, 0, 0
0, (0.22,0), 359.9998, 100.0, 359.99982907745806, 0, 0, 0, 0, 0, 0, 0
0, (0.22,0), 359.9998, 100.0, 359.9998167756697, 0, 0, 0, 0, 0, 0, 0
0, (0.22,0), 359.9998, 100.0, 359.99980298238137, 0, 0, 0, 0, 0, 0, 0
0, (0.22,0), 359.9998, 100.0, 359.99978310386985, 0, 0, 0, 0, 0, 0, 0
0, (0.22,0), 359.9998, 100.0, 359.99976509359664, 0, 0, 0, 0, 0, 0, 0
0, (0.22,0), 359.9998, 100.0, 359.99975012135434, 0, 0, 0, 0, 0, 0, 0
0, (0.22,0), 359.9997, 100.0, 359.99974120512053, 0, 0, 0, 0, 0, 0, 0
7.38, (0.414,0.017), 7.3797, 100.0, 7.0797263340221495, 6, 6, 0.0152, 0.1221, 6.1031, 0.758, 0.758
16.86, (1.159,0.182), 16.8597, 100.0, 16.079712637200412, 15.06, 15.06, 0.0792, 0.2748, 13.7405, 3.9608, 3.9608
25.98, (2.575,0.746), 25.9797, 100.0, 25.979696229834623, 24.84, 24.84, 0.2033, 0.4171, 20.8556, 10.1629, 10.1629
25.56, (4.145,1.601), 25.5597, 100.0, 26.639684176193533, 27.66, 27.66, 0.2242, 0.4469, 22.346, 11.2096, 11.2096
15.48, (6.011,2.312), 15.4797, 100.0, 16.31966733571833, 17.1, 17.1, 0.1405, 0.4799, 23.9927, 7.025, 7.025
5.22, (7.976,2.67), 5.2197, 100.0, 5.639654668491346, 6.66, 6.66, 0.0491, 0.4976, 24.879, 2.4569, 2.4569
355.44, (9.774,2.681), 355.4403, 100.0, 356.1603457114144, -2.88, -2.88, -0.0335, 0.4989, 24.9439, -1.6743, -1.6743
344.82, (11.743,2.347), 344.8203, 100.0, 345.60032839541884, -13.32, -13.32, -0.1243, 0.4843, 24.2146, -6.2172, -6.2172
334.74, (13.618,1.658), 334.7403, 100.0, 335.10030934742844, -23.82, -23.82, -0.2105, 0.4535, 22.6761, -10.5259, -10.5259
324.6, (15.173,0.756), 324.6003, 100.0, 325.7402922125872, -33.18, -33.18, -0.2815, 0.4132, 20.6623, -14.0737, -14.0737
314.52, (16.697,-0.535), 314.5203, 100.0, 314.88027171026783, -43.98, -43.98, -0.3543, 0.3528, 17.6406, -17.7147, -17.7147
304.44, (17.96,-2.082), 304.4402, 100.0, 304.4402456314347, -54.42, -54.42, -0.4124, 0.2828, 14.1386, -20.618, -20.618
300.54, (18.891,-3.623), 300.5402, 100.0, 300.5402269059545, -59.46, -59.46, -0.4306, 0.2541, 12.7035, -21.5319, -21.5319
300.54, (19.907,-5.346), 300.5402, 100.0, 300.540208293946, -59.46, -59.46, -0.4306, 0.2541, 12.7035, -21.5319, -21.5319
300.54, (20.923,-7.068), 300.5402, 100.0, 300.54019079378554, -59.46, -59.46, -0.4306, 0.2541, 12.7035, -21.5319, -21.5319
305.04, (21.863,-8.603), 305.0402, 100.0, 304.3201750588379, -56.76, -56.76, -0.413, 0.2819, 14.0954, -20.6475, -20.6475
314.52, (23.147,-10.133), 314.5202, 100.0, 314.520161970164, -46.56, -46.56, -0.3565, 0.3506, 17.529, -17.8251, -17.8251
321.18, (24.508,-11.309), 321.1801, 100.0, 321.18014538328316, -38.82, -38.82, -0.3134, 0.3896, 19.478, -15.6719, -15.6719
328.44, (26.118,-12.493), 328.4401, 100.0, 327.72012898152167, -33.06, -33.06, -0.267, 0.4227, 21.1362, -13.3514, -13.3514
331.5, (27.868,-13.462), 331.5001, 100.0, 331.5001102615247, -28.5, -28.5, -0.2386, 0.4394, 21.9704, -11.929, -11.929
331.5, (29.449,-14.32), 331.5001, 100.0, 331.50009718022784, -28.5, -28.5, -0.2386, 0.4394, 21.9704, -11.929, -11.929
341.4, (31.279,-15.122), 341.4001, 100.0, 341.04007661632295, -20.04, -20.04, -0.1625, 0.4729, 23.6436, -8.1227, -8.1227
341.82, (33.179,-15.746), 341.8201, 100.0, 341.8200610523927, -18.18, -18.18, -0.156, 0.475, 23.752, -7.8001, -7.8001
345.06, (35.085,-16.35), 345.06, 100.0, 344.700037598128, -16.08, -16.08, -0.1319, 0.4823, 24.1139, -6.5968, -6.5968
352.02, (36.854,-16.674), 352.02, 100.0, 352.02002409923557, -7.98, -7.98, -0.0694, 0.4952, 24.7579, -3.4707, -3.4707
352.02, (38.835,-16.952), 352.02, 100.0, 352.0200072585053, -7.98, -7.98, -0.0694, 0.4952, 24.7579, -3.4707, -3.4707
343.98, (40.793,-17.348), 343.98, 100.0, 343.9799874866467, -14.94, -14.94, -0.138, 0.4806, 24.0291, -6.8993, -6.8993
348.12, (42.524,-17.835), 348.12, 100.0, 348.1199698018435, -12.9, -12.9, -0.1029, 0.4893, 24.4645, -5.1466, -5.1466
351.9, (44.303,-18.107), 351.9, 100.0, 351.8999528630121, -8.1, -8.1, -0.0705, 0.495, 24.7506, -3.5225, -3.5225
343.02, (46.26,-18.508), 343.0199, 100.0, 343.7399375407106, -15.06, -15.06, -0.14, 0.48, 24, -6.9999, -6.9999
333.6, (48.121,-19.235), 333.5999, 100.0, 333.95991862348075, -25.02, -25.02, -0.2195, 0.4492, 22.4622, -10.975, -10.975
329.28, (49.876,-20.193), 329.2799, 100.0, 329.2799070939278, -29.58, -29.58, -0.2554, 0.4298, 21.4919, -12.7711, -12.7711
321.48, (51.496,-21.363), 321.4799, 100.0, 321.4798930578733, -38.52, -38.52, -0.3114, 0.3912, 19.5598, -15.5697, -15.5697
317.22, (52.888,-22.504), 317.2199, 100.0, 317.87987854102613, -40.68, -40.68, -0.3353, 0.3709, 18.5435, -16.7671, -16.7671
314.76, (54.269,-23.949), 314.7599, 100.0, 314.39986174791784, -46.62, -46.62, -0.3572, 0.3498, 17.4916, -17.8618, -17.8618
323.88, (55.634,-25.12), 323.8798, 100.0, 323.15984761074026, -37.98, -37.98, -0.2998, 0.4002, 20.0078, -14.9896, -14.9896
333.54, (57.34,-26.159), 333.5398, 100.0, 332.8198269215239, -28.2, -28.2, -0.2284, 0.4448, 22.2394, -11.4197, -11.4197
342.96, (59.199,-26.889), 342.9598, 100.0, 342.599812416181, -18.12, -18.12, -0.1495, 0.4771, 23.856, -7.476, -7.476
351.06, (60.958,-27.265), 351.0598, 100.0, 351.779792657146, -8.88, -8.88, -0.0715, 0.4949, 24.7432, -3.5744, -3.5744
341.46, (62.9,-27.73), 341.4598, 100.0, 341.8197757523954, -17.04, -17.04, -0.156, 0.475, 23.752, -7.8001, -7.8001
331.44, (64.737,-28.516), 331.4398, 100.0, 332.1597583647131, -26.76, -26.76, -0.2335, 0.4421, 22.1064, -11.6751, -11.6751
340.68, (66.56,-29.332), 340.6797, 100.0, 340.6797430293934, -20.58, -20.58, -0.1654, 0.4718, 23.5921, -8.2711, -8.2711
349.98, (68.297,-29.794), 349.9797, 100.0, 349.31973209963917, -11.64, -11.64, -0.0927, 0.4913, 24.5669, -4.6331, -4.6331
359.46, (70.285,-29.992), 359.4597, 100.0, 358.7997150628457, -2.28, -2.28, -0.0105, 0.4999, 24.9945, -0.5236, -0.5236
8.52, (72.278,-29.844), 8.5197, 100.0, 8.519699960943244, 7.74, 7.74, 0.0741, 0.4945, 24.7241, 3.7039, 3.7039
18.06, (74.027,-29.427), 18.0597, 100.0, 17.3996840698246, 16.32, 16.32, 0.1495, 0.4771, 23.856, 7.476, 7.476
27.48, (75.87,-28.657), 27.4797, 100.0, 26.759665551313947, 26.1, 26.1, 0.2251, 0.4465, 22.3225, 11.2564, 11.2564
37.2, (77.561,-27.592), 37.1996, 100.0, 36.35964980131347, 35.64, 35.64, 0.2964, 0.4027, 20.1327, 14.8214, 14.8214
46.44, (79.047,-26.257), 46.4396, 100.0, 46.07963138095693, 45.36, 45.36, 0.3602, 0.3468, 17.3413, 18.0077, 18.0077
52.5, (80.185,-24.863), 52.4996, 100.0, 52.49961227319931, 52.5, 52.5, 0.3967, 0.3044, 15.219, 19.8338, 19.8338
48.9, (81.419,-23.29), 48.8996, 100.0, 49.55959586654837, 50.4, 50.4, 0.3805, 0.3243, 16.2163, 19.0271, 19.0271
39.42, (82.856,-21.903), 39.4196, 100.0, 39.779581187125615, 40.8, 40.8, 0.3199, 0.3843, 19.2127, 15.996, 15.996
34.2, (84.498,-20.762), 34.1996, 100.0, 33.8395654851939, 32.88, 32.88, 0.2784, 0.4153, 20.7649, 13.9219, 13.9219
42.42, (85.892,-19.627), 42.4196, 100.0, 42.419553562783356, 42.42, 42.42, 0.3373, 0.3691, 18.4555, 16.864, 16.864
36.96, (87.399,-18.313), 36.9595, 100.0, 37.619535704053824, 38.64, 38.64, 0.3052, 0.396, 19.8019, 15.2605, 15.2605
36.12, (89.054,-17.192), 36.4795, 100.0, 36.17952278437118, 34.68, 34.68, 0.2926, 0.4054, 20.2715, 14.631, 14.631
45.24, (90.416,-16.018), 45.5995, 100.0, 44.879509752956, 43.5, 43.5, 0.3506, 0.3565, 17.8251, 17.529, 17.529
53.34, (91.708,-14.493), 53.6995, 100.0, 53.039494896923436, 52.02, 52.02, 0.3976, 0.3031, 15.1567, 19.8815, 19.8815
62.16, (92.758,-12.794), 62.5195, 100.0, 62.51948377959601, 62.16, 62.16, 0.4421, 0.2335, 11.6751, 22.1064, 22.1064
62.16, (93.598,-11.202), 62.5195, 100.0, 62.5194701682535, 62.16, 62.16, 0.4421, 0.2335, 11.6751, 22.1064, 22.1064
62.16, (94.532,-9.434), 62.5195, 100.0, 62.51945826040419, 62.16, 62.16, 0.4421, 0.2335, 11.6751, 22.1064, 22.1064
66.6, (95.429,-7.647), 66.9594, 100.0, 66.9594398982836, 65.58, 65.58, 0.4589, 0.1986, 9.9287, 22.9439, 22.9439
72.24, (96.018,-5.947), 72.5994, 100.0, 72.59942323523354, 72.24, 72.24, 0.4762, 0.1525, 7.6258, 23.8086, 23.8086
79.98, (96.529,-4.015), 80.3394, 100.0, 79.97940191018097, 78.54, 78.54, 0.4918, 0.0901, 4.5044, 24.5909, 24.5909
86.1, (96.778,-2.032), 86.4594, 100.0, 86.09938226834724, 84.72, 84.72, 0.4986, 0.0371, 1.8571, 24.9309, 24.9309
92.4, (96.763,-0.233), 92.7594, 100.0, 92.75936699854164, 92.4, 92.4, 0.4996, -0.0209, -1.0469, 24.9781, 24.9781
93.12, (96.678,1.765), 93.4793, 100.0, 93.11934742579132, 92.4, 92.4, 0.4994, -0.0241, -1.2038, 24.971, 24.971
102.6, (96.383,3.741), 102.9593, 100.0, 102.95932727357494, 102.24, 102.24, 0.488, -0.1091, -5.4536, 24.3979, 24.3979
112.74, (95.833,5.453), 113.0993, 100.0, 112.37931030137027, 110.94, 110.94, 0.4635, -0.1875, -9.3733, 23.1763, 23.1763
108.6, (95.089,7.309), 108.9593, 100.0, 109.31929694299204, 109.98, 109.98, 0.4729, -0.1625, -8.1227, 23.6436, 23.6436
102.48, (94.602,9.247), 102.8393, 100.0, 102.83928493086044, 102.48, 102.48, 0.4882, -0.108, -5.4025, 24.4093, 24.4093
102.48, (94.213,11.005), 102.8393, 100.0, 102.83927049056179, 102.48, 102.48, 0.4882, -0.108, -5.4025, 24.4093, 24.4093
102.9, (93.781,12.958), 103.2593, 100.0, 102.83925330891537, 102.48, 102.48, 0.4882, -0.108, -5.4025, 24.4093, 24.4093
112.86, (93.17,14.859), 113.2192, 100.0, 112.79923935838706, 111.24, 111.24, 0.4621, -0.1909, -9.5429, 23.107, 23.107
103.5, (92.543,16.756), 103.8592, 100.0, 103.85921541105834, 104.52, 104.52, 0.4862, -0.1167, -5.8361, 24.3092, 24.3092
99.3, (92.125,18.711), 99.6592, 100.0, 99.65920095892099, 100.38, 100.38, 0.4934, -0.0808, -4.0401, 24.6714, 24.6714
92.82, (91.98,20.504), 93.1792, 100.0, 93.17918537191001, 92.82, 92.82, 0.4994, -0.0246, -1.23, 24.9697, 24.9697
92.82, (91.882,22.502), 93.1792, 100.0, 93.1791666849616, 92.82, 92.82, 0.4994, -0.0246, -1.23, 24.9697, 24.9697
94.32, (91.78,24.499), 94.6792, 100.0, 93.95915444478042, 92.82, 92.82, 0.499, -0.0314, -1.5698, 24.9507, 24.9507
103.02, (91.46,26.471), 103.3791, 100.0, 103.37913846798068, 103.02, 103.02, 0.4871, -0.1126, -5.6323, 24.3573, 24.3573
102.66, (91.011,28.42), 103.0191, 100.0, 103.01911764847941, 103.02, 103.02, 0.4878, -0.1096, -5.4791, 24.3922, 24.3922
92.88, (90.777,30.202), 93.2391, 100.0, 93.89910242723474, 94.32, 94.32, 0.499, -0.0309, -1.5436, 24.9523, 24.9523
92.88, (90.676,32.2), 93.2391, 100.0, 93.23908410362947, 92.88, 92.88, 0.4994, -0.0251, -1.2561, 24.9684, 24.9684
84.9, (90.692,34.198), 85.2591, 100.0, 85.61907031332541, 85.98, 85.98, 0.4983, 0.0413, 2.0659, 24.9145, 24.9145
75.42, (90.99,35.971), 75.7791, 100.0, 76.7390563617489, 77.46, 77.46, 0.4859, 0.1177, 5.887, 24.297, 24.297
72.6, (91.57,37.885), 72.959, 100.0, 72.95904133148464, 72.6, 72.6, 0.4771, 0.1495, 7.476, 23.856, 23.856
72.6, (92.169,39.793), 72.959, 100.0, 72.95902360632951, 72.6, 72.6, 0.4771, 0.1495, 7.476, 23.856, 23.856
64.68, (92.876,41.661), 65.039, 100.0, 65.03900637698547, 65.7, 65.7, 0.452, 0.2138, 10.6918, 22.5983, 22.5983
60.72, (93.704,43.259), 61.079, 100.0, 61.858989628292676, 62.58, 62.58, 0.4394, 0.2386, 11.929, 21.9704, 21.9704
53.34, (94.821,44.915), 53.699, 100.0, 53.39897273655888, 52.26, 52.26, 0.3995, 0.3006, 15.0314, 19.9764, 19.9764
62.46, (95.765,46.445), 62.819, 100.0, 62.818961194875385, 61.44, 61.44, 0.4433, 0.2312, 11.5592, 22.1672, 22.1672
70.2, (96.595,48.263), 70.5589, 100.0, 70.1989454785754, 68.76, 68.76, 0.4694, 0.1723, 8.6161, 23.4683, 23.4683
72.6, (97.141,49.978), 72.9589, 100.0, 72.95893071311428, 72.6, 72.6, 0.4771, 0.1495, 7.476, 23.856, 23.856
79.2, (97.669,51.906), 79.5589, 100.0, 79.198907126884, 77.7, 77.7, 0.4905, 0.0968, 4.8387, 24.5273, 24.5273
76.92, (98.002,53.877), 77.2789, 100.0, 77.63889559786433, 78.36, 78.36, 0.4877, 0.1101, 5.5047, 24.3864, 24.3864
72.6, (98.574,55.793), 72.9589, 100.0, 72.95887831479803, 72.6, 72.6, 0.4771, 0.1495, 7.476, 23.856, 23.856
75.78, (99.098,57.515), 76.1389, 100.0, 75.35886972413138, 73.98, 73.98, 0.483, 0.1294, 6.4705, 24.1481, 24.1481
82.68, (99.437,59.484), 83.0388, 100.0, 83.03884872944153, 82.68, 82.68, 0.4959, 0.0637, 3.1853, 24.7963, 24.7963
72.54, (99.868,61.434), 72.8988, 100.0, 73.19883279961904, 74.04, 74.04, 0.4777, 0.1475, 7.376, 23.8871, 23.8871
72.54, (100.409,63.151), 72.8988, 100.0, 72.8988157675125, 72.54, 72.54, 0.477, 0.15, 7.501, 23.8482, 23.8482
72.54, (101.009,65.059), 72.8988, 100.0, 72.89880161945896, 72.54, 72.54, 0.477, 0.15, 7.501, 23.8482, 23.8482
72.54, (101.609,66.967), 72.8988, 100.0, 72.89878739249366, 72.54, 72.54, 0.477, 0.15, 7.501, 23.8482, 23.8482
72.54, (102.149,68.684), 72.8988, 100.0, 72.89877393569469, 72.54, 72.54, 0.477, 0.15, 7.501, 23.8482, 23.8482
72.54, (102.749,70.592), 72.8988, 100.0, 72.89876335469704, 72.54, 72.54, 0.477, 0.15, 7.501, 23.8482, 23.8482
81.66, (103.17,72.34), 82.0187, 100.0, 80.99874624165791, 79.56, 79.56, 0.4933, 0.0813, 4.0659, 24.6671, 24.6671
82.62, (103.43,74.323), 82.9787, 100.0, 82.97872600686028, 82.62, 82.62, 0.4959, 0.0642, 3.2112, 24.7929, 24.7929
85.14, (103.675,76.308), 85.4987, 100.0, 85.1987118333214, 83.76, 83.76, 0.498, 0.045, 2.2484, 24.8987, 24.8987
92.7, (103.677,78.106), 93.0587, 100.0, 93.05869941501511, 92.7, 92.7, 0.4994, -0.0236, -1.1777, 24.9722, 24.9722
83.4, (103.729,80.103), 83.7587, 100.0, 84.05868114197268, 84.78, 84.78, 0.497, 0.0549, 2.7434, 24.849, 24.849
86.58, (103.96,82.089), 86.9387, 100.0, 86.51865948718105, 84.78, 84.78, 0.4989, 0.0335, 1.6743, 24.9439, 24.9439
94.2, (103.924,84.087), 94.5586, 100.0, 94.13863905954435, 92.76, 92.76, 0.4989, -0.033, -1.6481, 24.9456, 24.9456
102.24, (103.64,85.863), 102.5986, 100.0, 103.2586225223135, 102.3, 102.3, 0.4874, -0.1116, -5.5813, 24.369, 24.369
92.88, (103.378,87.843), 93.2386, 100.0, 93.23860641503444, 94.02, 94.02, 0.4994, -0.0251, -1.2561, 24.9684, 24.9684
92.88, (103.277,89.84), 93.2386, 100.0, 93.23859352078033, 92.88, 92.88, 0.4994, -0.0251, -1.2561, 24.9684, 24.9684
92.88, (103.177,91.838), 93.2386, 100.0, 93.23857368449559, 92.88, 92.88, 0.4994, -0.0251, -1.2561, 24.9684, 24.9684
92.88, (103.086,93.635), 93.2386, 100.0, 93.23855472524335, 92.88, 92.88, 0.4994, -0.0251, -1.2561, 24.9684, 24.9684
83.7, (103.13,95.632), 84.0585, 100.0, 84.4185431533739, 85.14, 85.14, 0.4973, 0.0517, 2.5872, 24.8658, 24.8658
82.68, (103.384,97.616), 83.0385, 100.0, 83.0385267363404, 82.68, 82.68, 0.4959, 0.0637, 3.1853, 24.7963, 24.7963
73.98, (103.785,99.573), 74.3385, 100.0, 74.33851096512961, 74.64, 74.64, 0.4806, 0.138, 6.8993, 24.0291, 24.0291
78.06, (104.28,101.303), 78.4185, 100.0, 77.75849420173653, 76.38, 76.38, 0.488, 0.1091, 5.4536, 24.3979, 24.3979
82.74, (104.573,103.28), 83.0985, 100.0, 83.09847742822396, 82.74, 82.74, 0.496, 0.0632, 3.1593, 24.7996, 24.7996
82.74, (104.825,105.264), 83.0985, 100.0, 83.09845800722368, 82.74, 82.74, 0.496, 0.0632, 3.1593, 24.7996, 24.7996
73.44, (105.182,107.027), 73.7984, 100.0, 74.57844691693397, 75.54, 75.54, 0.4812, 0.136, 6.7986, 24.0578, 24.0578
80.58, (105.674,108.963), 80.9384, 100.0, 80.51843020535975, 79.08, 79.08, 0.4926, 0.0854, 4.2724, 24.6322, 24.6322
85.8, (105.914,110.948), 86.1584, 100.0, 85.73841786354389, 84.36, 84.36, 0.4984, 0.0403, 2.0137, 24.9188, 24.9188
91.2, (105.904,112.747), 91.5584, 100.0, 92.63840370316807, 93.06, 93.06, 0.4996, -0.0199, -0.9946, 24.9802, 24.9802
82.74, (106.03,114.741), 83.0984, 100.0, 83.09838650577193, 82.74, 82.74, 0.496, 0.0632, 3.1593, 24.7996, 24.7996
85.02, (106.273,116.726), 85.3784, 100.0, 85.01836450779281, 83.76, 83.76, 0.4978, 0.0465, 2.3266, 24.8915, 24.8915
92.88, (106.275,118.524), 93.2383, 100.0, 93.2383493286701, 92.88, 92.88, 0.4994, -0.0251, -1.2561, 24.9684, 24.9684
84.42, (106.288,120.522), 84.7783, 100.0, 85.49833337215524, 86.28, 86.28, 0.4982, 0.0424, 2.118, 24.9101, 24.9101
86.1, (106.517,122.509), 86.4583, 100.0, 86.09831925001346, 84.78, 84.78, 0.4986, 0.0371, 1.8571, 24.9309, 24.9309
92.76, (106.5,124.307), 93.1183, 100.0, 93.11830100902996, 92.76, 92.76, 0.4994, -0.0241, -1.2038, 24.971, 24.971
99.42, (106.339,126.3), 99.7783, 100.0, 98.69828420000913, 97.32, 97.32, 0.4947, -0.0725, -3.6262, 24.7356, 24.7356
99.78, (105.936,128.258), 100.1383, 100.0, 100.49826465250496, 100.92, 100.92, 0.4922, -0.088, -4.4013, 24.6095, 24.6095
90.12, (105.776,130.249), 90.4782, 100.0, 90.77824101125583, 91.44, 91.44, 0.5, -0.0037, -0.1833, 24.9993, 24.9993
80.7, (105.92,132.042), 81.0582, 100.0, 82.07822680798276, 82.86, 82.86, 0.4948, 0.072, 3.6003, 24.7394, 24.7394
74.22, (106.34,133.79), 74.5782, 100.0, 73.55821140504743, 72.84, 72.84, 0.4787, 0.1445, 7.2258, 23.933, 23.933
83.1, (106.723,135.751), 83.4582, 100.0, 83.45819264884277, 82.8, 82.8, 0.4964, 0.0601, 3.0034, 24.8189, 24.8189
83.1, (106.963,137.736), 83.4582, 100.0, 83.45817302643701, 83.1, 83.1, 0.4964, 0.0601, 3.0034, 24.8189, 24.8189
83.1, (107.203,139.722), 83.4582, 100.0, 83.45815928506337, 83.1, 83.1, 0.4964, 0.0601, 3.0034, 24.8189, 24.8189
78.6, (107.447,141.505), 78.9581, 100.0, 79.97814567864144, 80.58, 80.58, 0.4918, 0.0901, 4.5044, 24.5909, 24.5909
73.02, (107.97,143.434), 73.3781, 100.0, 73.37812243062226, 73.02, 73.02, 0.4782, 0.146, 7.3009, 23.9102, 23.9102
81.9, (108.425,145.379), 82.2581, 100.0, 81.89810498177535, 80.46, 80.46, 0.4946, 0.0736, 3.678, 24.728, 24.728
88.56, (108.612,147.369), 88.9181, 100.0, 88.61809284125492, 87.18, 87.18, 0.4998, 0.0152, 0.7591, 24.9885, 24.9885
93.12, (108.544,149.167), 93.4781, 100.0, 93.47808271235509, 93.12, 93.12, 0.4993, -0.0272, -1.3607, 24.9629, 24.9629
93.12, (108.435,151.164), 93.4781, 100.0, 93.4780698396103, 93.12, 93.12, 0.4993, -0.0272, -1.3607, 24.9629, 24.9629
93.12, (108.327,153.161), 93.4781, 100.0, 93.47805193908496, 93.12, 93.12, 0.4993, -0.0272, -1.3607, 24.9629, 24.9629
83.04, (108.397,155.157), 83.398, 100.0, 83.75803010303784, 84.54, 84.54, 0.4967, 0.0575, 2.8734, 24.8343, 24.8343
83.04, (108.639,157.142), 83.398, 100.0, 83.3980132836297, 83.04, 83.04, 0.4963, 0.0606, 3.0294, 24.8158, 24.8158
78.78, (108.882,158.925), 79.138, 100.0, 79.79799839862257, 80.52, 80.52, 0.4915, 0.0916, 4.5816, 24.5766, 24.5766
69.24, (109.428,160.848), 69.598, 100.0, 70.37798280224654, 70.92, 70.92, 0.4699, 0.1708, 8.5423, 23.4953, 23.4953
59.64, (110.289,162.65), 59.998, 100.0, 60.717966143454646, 61.44, 61.44, 0.4346, 0.2473, 12.3637, 21.7287, 21.7287
52.62, (111.432,164.289), 52.9779, 100.0, 52.97794974455631, 52.62, 52.62, 0.3973, 0.3035, 15.1775, 19.8657, 19.8657
59.64, (112.566,165.935), 59.9979, 100.0, 59.997933603977316, 58.8, 58.8, 0.4314, 0.2527, 12.6358, 21.5717, 21.5717
56.64, (113.449,167.502), 56.9979, 100.0, 57.77792255640044, 58.62, 58.62, 0.4213, 0.2692, 13.4619, 21.066, 21.066
57.48, (114.604,169.134), 57.8379, 100.0, 57.477903106310706, 56.04, 56.04, 0.4199, 0.2714, 13.572, 20.9952, 20.9952
57.9, (115.594,170.871), 58.2579, 100.0, 58.55788311781698, 59.28, 59.28, 0.4249, 0.2635, 13.1739, 21.2473, 21.2473
48.42, (116.798,172.465), 48.7779, 100.0, 49.13786693472779, 49.8, 49.8, 0.3761, 0.3295, 16.4738, 18.8046, 18.8046
38.94, (118.098,173.708), 39.2979, 100.0, 40.317852327744546, 40.92, 40.92, 0.3211, 0.3832, 19.1623, 16.0563, 16.0563
29.46, (119.746,174.837), 29.8178, 100.0, 30.5378380486699, 31.2, 31.2, 0.2514, 0.4322, 21.6113, 12.568, 12.568
21.6, (121.559,175.677), 21.9578, 100.0, 21.9578234155357, 21.6, 21.6, 0.1841, 0.4649, 23.2444, 9.2031, 9.2031
14.28, (123.45,176.319), 14.6378, 100.0, 14.637805027723907, 15.3, 15.3, 0.1233, 0.4846, 24.2275, 6.1665, 6.1665
11.46, (125.408,176.727), 11.8178, 100.0, 11.817786029640438, 11.46, 11.46, 0.0993, 0.49, 24.5016, 4.9671, 4.9671
1.5, (127.195,176.932), 1.8578, 100.0, 2.817769257399044, 3.48, 3.48, 0.0215, 0.4995, 24.977, 1.073, 1.073
7.02, (129.191,177.027), 7.3778, 100.0, 6.7177538968098185, 5.34, 5.34, 0.0554, 0.4969, 24.8461, 2.7694, 2.7694
11.22, (131.158,177.385), 11.5777, 100.0, 11.577734338267247, 11.22, 11.22, 0.0973, 0.4904, 24.5222, 4.8644, 4.8644
11.22, (132.924,177.735), 11.5777, 100.0, 11.57771902976811, 11.22, 11.22, 0.0973, 0.4904, 24.5222, 4.8644, 4.8644
1.38, (134.91,177.951), 1.7377, 100.0, 1.7377042726345915, 2.7, 2.7, 0.012, 0.4999, 24.9927, 0.6021, 0.6021
356.1, (136.709,177.951), 356.4623, 100.0, 357.48230101986303, -1.74, -1.74, -0.0251, 0.4994, 24.9684, -1.2561, -1.2561
350.94, (138.691,177.689), 351.3023, 100.0, 351.30228631168296, -9.06, -9.06, -0.0787, 0.4938, 24.6881, -3.9367, -3.9367
350.94, (140.666,177.374), 351.3023, 100.0, 351.3022646641888, -9.06, -9.06, -0.0787, 0.4938, 24.6881, -3.9367, -3.9367
350.94, (142.641,177.059), 351.3022, 100.0, 351.30224423994065, -9.06, -9.06, -0.0787, 0.4938, 24.6881, -3.9367, -3.9367
350.94, (144.616,176.744), 351.3022, 100.0, 351.3022271424772, -9.06, -9.06, -0.0787, 0.4938, 24.6881, -3.9367, -3.9367
343.38, (146.378,176.382), 343.7422, 100.0, 344.7622166659277, -14.46, -14.46, -0.1345, 0.4816, 24.0791, -6.723, -6.723
338.28, (148.268,175.729), 338.6422, 100.0, 339.2421978365137, -20.04, -20.04, -0.1802, 0.4664, 23.3207, -9.0081, -9.0081
331.68, (150.057,174.839), 332.0422, 100.0, 331.38217859364835, -29.7, -29.7, -0.2423, 0.4374, 21.8697, -12.1126, -12.1126
340.32, (151.892,174.051), 340.6822, 100.0, 340.6821661812734, -19.68, -19.68, -0.1684, 0.4708, 23.5397, -8.4192, -8.4192
340.32, (153.776,173.378), 340.6822, 100.0, 340.6821534815718, -19.68, -19.68, -0.1684, 0.4708, 23.5397, -8.4192, -8.4192
340.32, (155.47,172.772), 340.6821, 100.0, 340.6821371163316, -19.68, -19.68, -0.1684, 0.4708, 23.5397, -8.4192, -8.4192
330.18, (157.293,171.954), 330.5421, 100.0, 331.5621193031078, -27.78, -27.78, -0.2409, 0.4382, 21.9077, -12.0438, -12.0438
325.5, (159.01,170.93), 325.8621, 100.0, 326.52209923636707, -32.76, -32.76, -0.2784, 0.4153, 20.7649, -13.9219, -13.9219
324.54, (160.595,169.711), 324.9021, 100.0, 324.482084820365, -36.96, -36.96, -0.293, 0.4051, 20.2562, -14.6522, -14.6522
326.64, (162.287,168.646), 327.0021, 100.0, 327.00206375509737, -32.28, -32.28, -0.2749, 0.4176, 20.8808, -13.7474, -13.7474
320.1, (163.707,167.543), 320.462, 100.0, 320.4620486106009, -39.9, -39.9, -0.3207, 0.3836, 19.1791, -16.0362, -16.0362
312.6, (165.184,166.196), 312.962, 100.0, 313.7420372396378, -45.48, -45.48, -0.3634, 0.3434, 17.1708, -18.1704, -18.1704
315.42, (166.518,164.707), 315.782, 100.0, 315.362023931385, -46.02, -46.02, -0.3536, 0.3536, 17.6777, -17.6777, -17.6777
323.58, (168.043,163.416), 323.942, 100.0, 323.9420046569196, -37.68, -37.68, -0.2968, 0.4023, 20.1172, -14.8425, -14.8425
327.3, (169.565,162.455), 327.662, 100.0, 328.68199149051657, -30.66, -30.66, -0.2626, 0.4255, 21.2749, -13.1294, -13.1294
319.92, (171.155,161.246), 320.282, 100.0, 320.28197503584767, -40.08, -40.08, -0.3219, 0.3826, 19.1287, -16.0964, -16.0964
311.88, (172.612,159.878), 312.242, 100.0, 312.90196440257483, -46.44, -46.44, -0.3684, 0.3381, 16.9026, -18.4201, -18.4201
302.7, (173.819,158.287), 303.0619, 100.0, 303.06194656866643, -56.28, -56.28, -0.4208, 0.2701, 13.506, -21.0378, -21.0378
298.5, (174.718,156.727), 298.8619, 100.0, 300.0019354445557, -60.36, -60.36, -0.4346, 0.2473, 12.3637, -21.7287, -21.7287
289.62, (175.529,154.902), 289.9819, 100.0, 289.9819192885571, -69.72, -69.72, -0.471, 0.1679, 8.3945, -23.5485, -23.5485
289.62, (176.2,153.018), 289.9819, 100.0, 289.98190178586555, -70.38, -70.38, -0.471, 0.1679, 8.3945, -23.5485, -23.5485
289.62, (176.872,151.134), 289.9819, 100.0, 289.9818848923289, -70.38, -70.38, -0.471, 0.1679, 8.3945, -23.5485, -23.5485
297.6, (177.655,149.296), 297.9619, 100.0, 297.9618712176137, -63.72, -63.72, -0.4431, 0.2316, 11.5824, -22.1551, -22.1551
299.76, (178.545,147.732), 300.1219, 100.0, 300.12185393144745, -60.24, -60.24, -0.4341, 0.2482, 12.4092, -21.7028, -21.7028
299.76, (179.537,145.996), 300.1218, 100.0, 300.1218423521594, -60.24, -60.24, -0.4341, 0.2482, 12.4092, -21.7028, -21.7028
299.76, (180.53,144.259), 300.1218, 100.0, 300.1218242684107, -60.24, -60.24, -0.4341, 0.2482, 12.4092, -21.7028, -21.7028
299.76, (181.424,142.697), 300.1218, 100.0, 300.12181072816537, -60.24, -60.24, -0.4341, 0.2482, 12.4092, -21.7028, -21.7028
290.28, (182.293,140.898), 290.6418, 100.0, 291.3017937016411, -67.62, -67.62, -0.467, 0.1787, 8.9348, -23.3489, -23.3489
298.26, (183.087,139.065), 298.6218, 100.0, 298.2017791212347, -63.18, -63.18, -0.4421, 0.2335, 11.6751, -22.1064, -22.1064
299.04, (184.074,137.326), 299.4018, 100.0, 299.76176406124, -60.3, -60.3, -0.4356, 0.2455, 12.2726, -21.7803, -21.7803
289.56, (184.807,135.684), 289.9217, 100.0, 290.28174793222297, -69.06, -69.06, -0.4701, 0.1704, 8.5177, -23.5042, -23.5042
289.56, (185.477,133.799), 289.9217, 100.0, 289.92173086759385, -70.44, -70.44, -0.4711, 0.1674, 8.3698, -23.5573, -23.5573
299.1, (186.302,131.981), 299.4617, 100.0, 299.4617191147575, -61.98, -61.98, -0.4369, 0.2432, 12.1584, -21.8443, -21.8443
296.7, (187.19,130.415), 297.0617, 100.0, 298.1417041114293, -61.14, -61.14, -0.4424, 0.233, 11.6519, -22.1186, -22.1186
291.9, (187.957,128.57), 292.2617, 100.0, 291.5416923004997, -69.54, -69.54, -0.4662, 0.1806, 9.0325, -23.3112, -23.3112
297.96, (188.852,126.783), 298.3217, 100.0, 298.6816747055323, -60.6, -60.6, -0.4402, 0.2372, 11.8599, -22.0078, -22.0078
288.42, (189.631,124.943), 288.7817, 100.0, 289.44166328037517, -70.32, -70.32, -0.4725, 0.1634, 8.1722, -23.6266, -23.6266
279.06, (190.093,123), 279.7216, 100.0, 279.7216426278378, -80.52, -80.52, -0.4938, 0.0787, 3.9367, -24.6881, -24.6881
276.18, (190.391,121.023), 276.8416, 100.0, 277.20162545325667, -82.68, -82.68, -0.4967, 0.0569, 2.8474, -24.8373, -24.8373
266.88, (190.431,119.225), 267.5416, 100.0, 268.62161196974193, -91.32, -91.32, -0.4997, -0.0178, -0.8899, -24.9842, -24.9842
258.72, (190.162,117.245), 259.3816, 100.0, 259.38159374503255, -101.28, -101.28, -0.4903, -0.0978, -4.8901, -24.5171, -24.5171
261.54, (189.785,115.281), 262.2016, 100.0, 261.8415769413923, -99.78, -99.78, -0.4941, -0.0767, -3.8333, -24.7044, -24.7044
268.8, (189.661,113.487), 269.4616, 100.0, 269.46155891349906, -91.2, -91.2, -0.4999, -0.0105, -0.5236, -24.9945, -24.9945
276.96, (189.726,111.49), 277.6215, 100.0, 276.9615411102332, -84.84, -84.84, -0.497, 0.0549, 2.7434, -24.849, -24.849
272.04, (189.942,109.503), 272.7015, 100.0, 272.70152136119077, -86.82, -86.82, -0.4997, 0.0178, 0.8899, -24.9842, -24.9842
268.74, (189.914,107.504), 269.4015, 100.0, 269.4015077399937, -91.26, -91.26, -0.4999, -0.011, -0.5497, -24.994, -24.994
262.98, (189.825,105.707), 263.6415, 100.0, 264.4214872532716, -95.16, -95.16, -0.497, -0.0543, -2.7173, -24.8519, -24.8519
253.32, (189.426,103.75), 253.9815, 100.0, 254.6414652056508, -105, -105, -0.4806, -0.138, -6.8993, -24.0291, -24.0291
244.14, (188.694,101.891), 244.8014, 100.0, 244.8014494578953, -114.84, -114.84, -0.4499, -0.2181, -10.9043, -22.4966, -22.4966
234.9, (187.776,100.344), 235.5614, 100.0, 236.28143537628782, -123.3, -123.3, -0.4127, -0.2823, -14.117, -20.6328, -20.6328
229.74, (186.506,98.801), 230.4014, 100.0, 229.74142510109658, -132.06, -132.06, -0.3778, -0.3275, -16.3751, -18.8906, -18.8906
239.22, (185.352,97.171), 239.8814, 100.0, 239.5214045249623, -122.16, -122.16, -0.428, -0.2586, -12.9283, -21.3977, -21.3977
248.04, (184.566,95.553), 248.7014, 100.0, 248.70138785960003, -112.92, -112.92, -0.4637, -0.187, -9.349, -23.1861, -23.1861
257.1, (183.943,93.656), 257.7614, 100.0, 257.0413740014287, -104.64, -104.64, -0.4859, -0.1177, -5.887, -24.297, -24.297
258.18, (183.532,91.698), 258.8414, 100.0, 258.84135282496703, -101.82, -101.82, -0.4894, -0.1024, -5.1209, -24.4699, -24.4699
258.18, (183.123,89.741), 258.8413, 100.0, 258.8413376586706, -101.82, -101.82, -0.4894, -0.1024, -5.1209, -24.4699, -24.4699
262.8, (182.786,87.973), 263.4613, 100.0, 262.7413260828842, -99, -99, -0.4952, -0.0689, -3.4448, -24.7615, -24.7615
268.26, (182.675,85.977), 268.9213, 100.0, 268.9213098127105, -91.74, -91.74, -0.4998, -0.0152, -0.7591, -24.9885, -24.9885
263.16, (182.582,84.18), 263.8213, 100.0, 264.54129740976765, -95.04, -95.04, -0.4972, -0.0533, -2.6653, -24.8575, -24.8575
262.32, (182.24,82.21), 262.9813, 100.0, 262.26128411237585, -99.72, -99.72, -0.4946, -0.073, -3.6521, -24.7318, -24.7318
268.14, (182.113,80.216), 268.8013, 100.0, 268.8012691040579, -91.86, -91.86, -0.4997, -0.0162, -0.8114, -24.9868, -24.9868
261.66, (181.972,78.222), 262.3213, 100.0, 262.6812542312691, -97.02, -97.02, -0.4952, -0.0694, -3.4707, -24.7579, -24.7579
263.94, (181.646,76.25), 264.6012, 100.0, 264.6012379813734, -96.84, -96.84, -0.4972, -0.0528, -2.6392, -24.8603, -24.8603
273.42, (181.608,74.452), 274.0812, 100.0, 273.3612245995033, -88.26, -88.26, -0.4994, 0.0236, 1.1777, -24.9722, -24.9722
278.34, (181.852,72.468), 279.0012, 100.0, 279.0012101498612, -81.66, -81.66, -0.4947, 0.0725, 3.6262, -24.7356, -24.7356
275.04, (182.122,70.486), 275.7012, 100.0, 276.0612017077655, -83.52, -83.52, -0.4978, 0.0471, 2.3527, -24.889, -24.889
268.2, (182.134,68.488), 268.8612, 100.0, 268.8611898081407, -91.8, -91.8, -0.4998, -0.0157, -0.7853, -24.9877, -24.9877
277.86, (182.228,66.692), 278.5212, 100.0, 277.86117661673194, -83.94, -83.94, -0.4961, 0.0627, 3.1333, -24.8029, -24.8029
287.28, (182.654,64.74), 287.9412, 100.0, 287.5811591930769, -74.16, -74.16, -0.4784, 0.1455, 7.2759, -23.9178, -23.9178
294.3, (183.345,62.865), 294.9611, 100.0, 294.6611437901776, -67.02, -67.02, -0.4568, 0.2034, 10.1684, -22.8386, -22.8386
302.4, (184.304,61.112), 303.0611, 100.0, 303.0611245064645, -58.68, -58.68, -0.4222, 0.2679, 13.3957, -21.1082, -21.1082
305.1, (185.371,59.663), 305.7611, 100.0, 306.54110627606417, -52.98, -52.98, -0.4051, 0.293, 14.6522, -20.2562, -20.2562
300.72, (186.397,57.947), 301.3811, 100.0, 300.66108956426126, -61.08, -61.08, -0.433, 0.25, 12.5, -21.6506, -21.6506
310.32, (187.563,56.325), 310.9811, 100.0, 310.6210721808013, -51.18, -51.18, -0.3832, 0.3211, 16.0563, -19.1623, -19.1623
317.7, (188.839,55.059), 318.3611, 100.0, 319.3810590296962, -41.64, -41.64, -0.3299, 0.3757, 18.7874, -16.4935, -16.4935
308.52, (190.204,53.601), 309.181, 100.0, 309.1810456633898, -50.46, -50.46, -0.3912, 0.3114, 15.5697, -19.5598, -19.5598
298.5, (191.306,51.934), 299.161, 100.0, 299.4610301866493, -60.06, -60.06, -0.4382, 0.2409, 12.0438, -21.9077, -21.9077
288.84, (192.043,50.294), 289.501, 100.0, 290.6410147895713, -68.94, -68.94, -0.4699, 0.1708, 8.5423, -23.4953, -23.4953
297.3, (192.795,48.444), 297.961, 100.0, 297.24100072238207, -64.44, -64.44, -0.4472, 0.2237, 11.1862, -22.3578, -22.3578
290.64, (193.651,46.638), 291.301, 100.0, 291.72098080886667, -67.92, -67.92, -0.4666, 0.1797, 8.9836, -23.3301, -23.3301
281.04, (194.209,44.72), 282.001, 100.0, 282.6609666547469, -77.22, -77.22, -0.4896, 0.1014, 5.0697, -24.4806, -24.4806
271.62, (194.43,42.735), 272.581, 100.0, 272.9409504081759, -87, -87, -0.4997, 0.0173, 0.8638, -24.9851, -24.9851
262.2, (194.341,40.938), 263.1609, 100.0, 264.24093256390375, -95.64, -95.64, -0.4966, -0.0585, -2.9254, -24.8282, -24.8282
252.78, (193.922,38.985), 253.7409, 100.0, 254.82091147894113, -105.42, -105.42, -0.4803, -0.139, -6.9496, -24.0146, -24.0146
244.26, (193.196,37.123), 245.2209, 100.0, 246.0008914600536, -113.52, -113.52, -0.4533, -0.211, -10.5496, -22.6651, -22.6651
234.84, (192.183,35.401), 235.8009, 100.0, 236.16087548737946, -123.66, -123.66, -0.4106, -0.2854, -14.2678, -20.5287, -20.5287
227.88, (191.033,34.019), 228.8409, 100.0, 227.64086357390437, -132.96, -132.96, -0.3638, -0.343, -17.1518, -18.1883, -18.1883
237.3, (189.817,32.435), 238.2608, 100.0, 237.84084463367233, -123.84, -123.84, -0.4188, -0.2732, -13.6599, -20.9382, -20.9382
246.9, (188.892,30.665), 247.8608, 100.0, 247.86083014001244, -113.82, -113.82, -0.4599, -0.1962, -9.8084, -22.9955, -22.9955
256.92, (188.274,28.765), 257.8808, 100.0, 257.5808169876201, -104.4, -104.4, -0.4864, -0.1157, -5.7852, -24.3214, -24.3214
256.92, (187.866,27.012), 257.8808, 100.0, 257.880796135909, -103.08, -103.08, -0.487, -0.1132, -5.6578, -24.3514, -24.3514
265.14, (187.526,25.044), 266.1008, 100.0, 265.68077754117724, -96.36, -96.36, -0.4979, -0.046, -2.3006, -24.8939, -24.8939
268.56, (187.425,23.046), 269.5208, 100.0, 269.16075575203547, -92.76, -92.76, -0.4998, -0.0157, -0.7853, -24.9877, -24.9877
277.5, (187.533,21.251), 278.4607, 100.0, 278.46074043189316, -83.46, -83.46, -0.4957, 0.0653, 3.2632, -24.7861, -24.7861
277.5, (187.794,19.269), 278.4607, 100.0, 278.460727924335, -82.5, -82.5, -0.4957, 0.0653, 3.2632, -24.7861, -24.7861
277.5, (188.055,17.286), 278.4607, 100.0, 278.46071422351883, -82.5, -82.5, -0.4957, 0.0653, 3.2632, -24.7861, -24.7861
271.5, (188.248,15.296), 272.4607, 100.0, 272.4606968340862, -87.36, -87.36, -0.4998, 0.0131, 0.6544, -24.9914, -24.9914
262.2, (188.138,13.502), 263.1607, 100.0, 263.4606822865426, -96.48, -96.48, -0.4957, -0.0653, -3.2632, -24.7861, -24.7861
261.3, (187.794,11.735), 262.2607, 100.0, 261.2406713361824, -100.92, -100.92, -0.4928, -0.0844, -4.2208, -24.6411, -24.6411
270.72, (187.646,9.743), 271.6807, 100.0, 270.96065582757876, -90.96, -90.96, -0.5, -0, -0, -25, -25
277.56, (187.826,7.753), 278.5206, 100.0, 278.52063667416115, -82.44, -82.44, -0.4957, 0.0658, 3.2891, -24.7827, -24.7827
285.36, (188.202,5.791), 286.3206, 100.0, 286.3206196748738, -75.42, -75.42, -0.4821, 0.1324, 6.6221, -24.107, -24.107
287.7, (188.743,4.074), 288.6606, 100.0, 288.66060581352986, -72.3, -72.3, -0.4763, 0.152, 7.6008, -23.8165, -23.8165
287.7, (189.351,2.169), 288.6606, 100.0, 288.66058855200356, -72.3, -72.3, -0.4763, 0.152, 7.6008, -23.8165, -23.8165
282.42, (189.907,0.249), 283.3806, 100.0, 283.3805716261557, -76.44, -76.44, -0.4883, 0.1075, 5.3769, -24.4149, -24.4149
282.12, (190.203,-1.526), 283.0806, 100.0, 282.3605537638545, -79.56, -79.56, -0.4901, 0.0988, 4.9414, -24.5068, -24.5068
291.36, (190.782,-3.438), 292.3205, 100.0, 291.90053133072513, -69.72, -69.72, -0.467, 0.1787, 8.9348, -23.3489, -23.3489
297.78, (191.566,-5.057), 298.7405, 100.0, 298.74051634321654, -62.22, -62.22, -0.4424, 0.233, 11.6519, -22.1186, -22.1186
306.3, (192.594,-6.77), 307.2605, 100.0, 306.240498991055, -55.86, -55.86, -0.4082, 0.2888, 14.4393, -20.4085, -20.4085
299.94, (193.733,-8.412), 300.9005, 100.0, 301.56048334906893, -58.32, -58.32, -0.4304, 0.2545, 12.726, -21.5186, -21.5186
300.66, (194.679,-10.174), 301.6205, 100.0, 300.9004669898906, -61.08, -61.08, -0.4333, 0.2495, 12.4773, -21.6637, -21.6637
307.74, (195.832,-11.807), 308.7004, 100.0, 308.700449948088, -52.26, -52.26, -0.3954, 0.306, 15.302, -19.7699, -19.7699
307.74, (197.056,-13.388), 308.7004, 100.0, 308.70043064467245, -52.26, -52.26, -0.3954, 0.306, 15.302, -19.7699, -19.7699
312.18, (198.181,-14.793), 313.1404, 100.0, 312.42041324990737, -49.5, -49.5, -0.3747, 0.331, 16.5524, -18.7355, -18.7355
317.76, (199.621,-16.179), 318.7204, 100.0, 318.7203938654983, -42.24, -42.24, -0.3361, 0.3702, 18.5084, -16.8059, -16.8059
317.76, (200.954,-17.389), 318.7204, 100.0, 318.7203772718382, -42.24, -42.24, -0.3361, 0.3702, 18.5084, -16.8059, -16.8059
327.12, (202.524,-18.624), 328.0804, 100.0, 327.36036322161124, -34.68, -34.68, -0.2767, 0.4165, 20.823, -13.8348, -13.8348
327.9, (204.217,-19.688), 328.8603, 100.0, 328.86034807584775, -32.1, -32.1, -0.2657, 0.4236, 21.178, -13.285, -13.285
334.38, (205.949,-20.685), 335.3403, 100.0, 335.3403273548081, -27.06, -27.06, -0.2162, 0.4508, 22.542, -10.81, -10.81
343.5, (207.628,-21.33), 344.4603, 100.0, 343.6803072946663, -17.94, -17.94, -0.1485, 0.4774, 23.8716, -7.426, -7.426
347.94, (209.576,-21.777), 348.9003, 100.0, 348.9002934643923, -12.06, -12.06, -0.1045, 0.489, 24.4482, -5.2234, -5.2234
347.94, (211.532,-22.195), 348.9003, 100.0, 348.90027718188674, -12.06, -12.06, -0.1045, 0.489, 24.4482, -5.2234, -5.2234
344.7, (213.289,-22.585), 345.6603, 100.0, 346.6802601901558, -13.5, -13.5, -0.1233, 0.4846, 24.2275, -6.1665, -6.1665
337.8, (215.171,-23.257), 338.7602, 100.0, 338.76024105344214, -22.2, -22.2, -0.1889, 0.4629, 23.1468, -9.446, -9.446
337.8, (216.838,-23.937), 338.7602, 100.0, 338.760227515198, -22.2, -22.2, -0.1889, 0.4629, 23.1468, -9.446, -9.446
337.8, (218.689,-24.693), 338.7602, 100.0, 338.76020566119985, -22.2, -22.2, -0.1889, 0.4629, 23.1468, -9.446, -9.446
337.8, (220.356,-25.373), 338.7602, 100.0, 338.7601935602002, -22.2, -22.2, -0.1889, 0.4629, 23.1468, -9.446, -9.446
336.78, (222.207,-26.13), 337.7402, 100.0, 338.4001777072829, -22.2, -22.2, -0.1918, 0.4617, 23.087, -9.5913, -9.5913
327.78, (223.966,-27.076), 328.7402, 100.0, 328.74015671371427, -31.86, -31.86, -0.2666, 0.423, 21.1502, -13.3293, -13.3293
321, (225.451,-28.091), 321.9601, 100.0, 322.98014587158326, -36.96, -36.96, -0.3077, 0.3941, 19.7056, -15.3847, -15.3847
311.64, (226.903,-29.464), 312.6001, 100.0, 313.38013244404385, -46.86, -46.86, -0.3716, 0.3346, 16.7283, -18.5786, -18.5786
313.2, (228.186,-30.997), 314.1601, 100.0, 313.8001116480747, -48.24, -48.24, -0.3666, 0.34, 16.9988, -18.3314, -18.3314
317.76, (229.644,-32.366), 318.7201, 100.0, 318.7200927517041, -42.24, -42.24, -0.3361, 0.3702, 18.5084, -16.8059, -16.8059
322.74, (231.001,-33.547), 323.7001, 100.0, 322.9800792036361, -39, -39, -0.3077, 0.3941, 19.7056, -15.3847, -15.3847
332.1, (232.685,-34.622), 333.0601, 100.0, 332.70006200413746, -29.34, -29.34, -0.2367, 0.4404, 22.0202, -11.8368, -11.8368
338.22, (234.518,-35.419), 339.18, 100.0, 339.1800459592177, -21.78, -21.78, -0.1855, 0.4643, 23.2154, -9.2761, -9.2761
345.42, (236.216,-36.011), 346.38, 100.0, 345.72002873898134, -16.44, -16.44, -0.1314, 0.4824, 24.1208, -6.5716, -6.5716
348.54, (238.172,-36.427), 349.5, 100.0, 349.5000121180515, -11.46, -11.46, -0.0993, 0.49, 24.5016, -4.9671, -4.9671
353.4, (240.14,-36.78), 354.36, 100.0, 353.9999973961364, -7.98, -7.98, -0.0606, 0.4963, 24.8158, -3.0294, -3.0294
2.88, (241.938,-36.839), 3.84, 100.0, 2.8199827080618665, 0.84, 0.84, 0.0162, 0.4997, 24.9868, 0.8114, 0.8114
8.88, (243.921,-36.595), 9.84, 100.0, 9.839960625219673, 8.88, 8.88, 0.0772, 0.494, 24.7003, 3.8591, 3.8591
8.88, (245.897,-36.286), 9.8399, 100.0, 9.839943675355842, 8.88, 8.88, 0.0772, 0.494, 24.7003, 3.8591, 3.8591
8.88, (247.873,-35.977), 9.8399, 100.0, 9.839927291300226, 8.88, 8.88, 0.0772, 0.494, 24.7003, 3.8591, 3.8591
8.88, (249.652,-35.699), 9.8399, 100.0, 9.839913102662493, 8.88, 8.88, 0.0772, 0.494, 24.7003, 3.8591, 3.8591
10.44, (251.627,-35.387), 11.3999, 100.0, 10.73989880835566, 8.88, 8.88, 0.0849, 0.4927, 24.6367, 4.2466, 4.2466
19.02, (253.553,-34.857), 19.9799, 100.0, 19.97987482444061, 19.02, 19.02, 0.1629, 0.4727, 23.6351, 8.1475, 8.1475
19.02, (255.444,-34.205), 19.9799, 100.0, 19.97985809072567, 19.02, 19.02, 0.1629, 0.4727, 23.6351, 8.1475, 8.1475
21.6, (257.142,-33.61), 22.5598, 100.0, 21.83984220305536, 19.74, 19.74, 0.1782, 0.4672, 23.3582, 8.9103, 8.9103
29.1, (258.934,-32.726), 30.0598, 100.0, 30.05982439877146, 29.1, 29.1, 0.2432, 0.4369, 21.8443, 12.1584, 12.1584
39.24, (260.588,-31.605), 40.1998, 100.0, 39.77980165000371, 37.74, 37.74, 0.3134, 0.3896, 19.478, 15.6719, 15.6719
29.58, (262.229,-30.467), 30.5398, 100.0, 30.959784587011086, 31.14, 31.14, 0.25, 0.433, 21.6506, 12.5, 12.5
20.16, (264.039,-29.623), 21.1198, 100.0, 21.479772521913986, 21.42, 21.42, 0.1753, 0.4683, 23.4137, 8.7634, 8.7634
10.68, (265.966,-29.095), 11.6398, 100.0, 11.639751895404203, 11.76, 11.76, 0.0927, 0.4913, 24.5669, 4.6331, 4.6331
1.5, (267.754,-28.898), 2.4597, 100.0, 3.2397405443115472, 3.36, 3.36, 0.0199, 0.4996, 24.9802, 0.9946, 0.9946
4.44, (269.752,-28.868), 5.5197, 100.0, 5.159719764940283, 3, 3, 0.0356, 0.4987, 24.9366, 1.7787, 1.7787
8.7, (271.733,-28.593), 9.7797, 100.0, 9.779698714432858, 8.7, 8.7, 0.0756, 0.4942, 24.7123, 3.7815, 3.7815
15.96, (273.691,-28.193), 17.0397, 100.0, 17.03967651580626, 14.82, 14.82, 0.1375, 0.4807, 24.0363, 6.8742, 6.8742
18.9, (275.397,-27.621), 19.9797, 100.0, 19.979660519364817, 18.9, 18.9, 0.162, 0.473, 23.6521, 8.0979, 8.0979
28.68, (277.227,-26.821), 29.7596, 100.0, 29.39964528961534, 27.24, 27.24, 0.2372, 0.4402, 22.0078, 11.8599, 11.8599
23.1, (279.007,-25.912), 24.1796, 100.0, 24.17962677412962, 24.18, 24.18, 0.1962, 0.4599, 22.9955, 9.8084, 9.8084
18.84, (280.701,-25.305), 19.9196, 100.0, 19.919609778582608, 18.84, 18.84, 0.1615, 0.4732, 23.6606, 8.0732, 8.0732
25.32, (282.572,-24.6), 26.3996, 100.0, 25.679590590128456, 23.22, 23.22, 0.2081, 0.4546, 22.7309, 10.407, 10.407
28.92, (284.334,-23.656), 29.9996, 100.0, 29.999573110372978, 28.92, 28.92, 0.2418, 0.4376, 21.8824, 12.0897, 12.0897
33.72, (286.065,-22.655), 34.7996, 100.0, 34.37955346848225, 32.22, 32.22, 0.2745, 0.4179, 20.8952, 13.7256, 13.7256
39.24, (287.643,-21.428), 40.3195, 100.0, 40.319532969322935, 39.24, 39.24, 0.3163, 0.3873, 19.3626, 15.8143, 15.8143
47.04, (288.975,-20.219), 48.1195, 100.0, 47.09951685137423, 45.24, 45.24, 0.3598, 0.3472, 17.3602, 17.9896, 17.9896
49.44, (290.286,-18.709), 50.5195, 100.0, 50.519496804982545, 49.44, 49.44, 0.3799, 0.3251, 16.2561, 18.9931, 18.9931
49.44, (291.456,-17.342), 50.5195, 100.0, 50.51948171896332, 49.44, 49.44, 0.3799, 0.3251, 16.2561, 18.9931, 18.9931
49.44, (292.757,-15.822), 50.5195, 100.0, 50.5194693775083, 49.44, 49.44, 0.3799, 0.3251, 16.2561, 18.9931, 18.9931
49.44, (294.057,-14.303), 50.5194, 100.0, 50.51944918769213, 49.44, 49.44, 0.3799, 0.3251, 16.2561, 18.9931, 18.9931
56.82, (295.277,-12.72), 57.8994, 100.0, 57.89942971703164, 55.8, 55.8, 0.4185, 0.2736, 13.6818, 20.9239, 20.9239
59.52, (296.197,-11.173), 60.5994, 100.0, 60.59941783228964, 59.52, 59.52, 0.4309, 0.2536, 12.6809, 21.5452, 21.5452
52.62, (297.277,-9.492), 53.6994, 100.0, 54.47940119289193, 54.18, 54.18, 0.4014, 0.2981, 14.9056, 20.0704, 20.0704
55.68, (298.51,-7.918), 56.7594, 100.0, 56.3993814739167, 54.3, 54.3, 0.4112, 0.2845, 14.2248, 20.5586, 20.5586
65.1, (299.404,-6.358), 66.1794, 100.0, 64.97936478069455, 63.18, 63.18, 0.449, 0.22, 10.9985, 22.4507, 22.4507
69.54, (300.139,-4.498), 70.6194, 100.0, 70.61935291236944, 69.54, 69.54, 0.4685, 0.1748, 8.7388, 23.4229, 23.4229
69.54, (300.838,-2.625), 70.6193, 100.0, 70.61933780749605, 69.54, 69.54, 0.4685, 0.1748, 8.7388, 23.4229, 23.4229
65.52, (301.567,-0.763), 66.5993, 100.0, 66.59932443338779, 66.66, 66.66, 0.4551, 0.2072, 10.3594, 22.7526, 22.7526
62.4, (302.425,0.818), 63.4793, 100.0, 62.75930642762033, 60.66, 60.66, 0.4402, 0.2372, 11.8599, 22.0078, 22.0078
72.06, (303.198,2.661), 73.1393, 100.0, 72.4792865867061, 70.38, 70.38, 0.4739, 0.1595, 7.974, 23.6942, 23.6942
79.5, (303.657,4.605), 80.5793, 100.0, 80.57927440443638, 79.5, 79.5, 0.4916, 0.0911, 4.5559, 24.5814, 24.5814
80.64, (304.017,6.573), 81.7193, 100.0, 81.71925907738907, 79.5, 79.5, 0.4933, 0.0813, 4.0659, 24.6671, 24.6671
89.52, (304.153,8.366), 90.5992, 100.0, 90.59923954875944, 88.8, 88.8, 0.5, 0.0042, 0.2094, 24.9991, 24.9991
89.52, (304.17,10.366), 90.5992, 100.0, 90.59922632233955, 89.52, 89.52, 0.5, 0.0042, 0.2094, 24.9991, 24.9991
89.52, (304.186,12.366), 90.5992, 100.0, 90.5992041053142, 89.52, 89.52, 0.5, 0.0042, 0.2094, 24.9991, 24.9991
91.68, (304.192,14.365), 92.7592, 100.0, 92.75918649186869, 90.6, 90.6, 0.4998, -0.0147, -0.7329, 24.9893, 24.9893
99.6, (303.988,16.152), 100.6792, 100.0, 100.67916940271375, 99.6, 99.6, 0.493, -0.0834, -4.1692, 24.6499, 24.6499
99.6, (303.655,18.124), 100.6792, 100.0, 100.67915430611191, 99.6, 99.6, 0.493, -0.0834, -4.1692, 24.6499, 24.6499
99.3, (303.321,20.096), 100.3791, 100.0, 100.67913951109962, 99.6, 99.6, 0.493, -0.0834, -4.1692, 24.6499, 24.6499
89.34, (303.181,22.089), 90.4191, 100.0, 90.41912228640534, 90.42, 90.42, 0.5, 0.0058, 0.288, 24.9983, 24.9983
97.86, (303.087,23.884), 98.9391, 100.0, 98.2191067504813, 96.12, 96.12, 0.4961, -0.0621, -3.1074, 24.8061, 24.8061
99.66, (302.758,25.857), 100.7391, 100.0, 100.73908933195071, 99.66, 99.66, 0.4929, -0.0839, -4.195, 24.6455, 24.6455
94.56, (302.467,27.835), 95.6391, 100.0, 95.93907277446127, 96, 96, 0.4982, -0.0424, -2.118, 24.9101, 24.9101
89.52, (302.441,29.834), 90.5991, 100.0, 90.59905568741736, 89.52, 89.52, 0.5, 0.0042, 0.2094, 24.9991, 24.9991
99.6, (302.271,31.824), 100.679, 100.0, 100.67903692525245, 98.4, 98.4, 0.493, -0.0834, -4.1692, 24.6499, 24.6499
99.24, (301.971,33.598), 100.319, 100.0, 100.67902201860781, 99.6, 99.6, 0.493, -0.0834, -4.1692, 24.6499, 24.6499
89.4, (301.815,35.59), 90.479, 100.0, 90.83900910235721, 90.9, 90.9, 0.5, 0.0021, 0.1047, 24.9998, 24.9998
89.4, (301.836,37.59), 90.479, 100.0, 90.47899214043099, 89.4, 89.4, 0.5, 0.0052, 0.2618, 24.9986, 24.9986
98.28, (301.725,39.584), 99.359, 100.0, 98.63897709902663, 96.6, 96.6, 0.4957, -0.0658, -3.2891, 24.7827, 24.7827
107.46, (301.281,41.532), 108.539, 100.0, 108.53896378136093, 106.32, 106.32, 0.477, -0.15, -7.501, 23.8482, 23.8482
102.36, (300.756,43.252), 103.439, 100.0, 104.15895620352326, 104.46, 104.46, 0.487, -0.1132, -5.6578, 24.3514, 24.3514
103.26, (300.389,45.218), 104.3389, 100.0, 103.5589411707542, 101.82, 101.82, 0.4882, -0.108, -5.4025, 24.4093, 24.4093
109.62, (299.785,47.123), 110.6989, 100.0, 110.6989217000911, 109.62, 109.62, 0.471, -0.1679, -8.3945, 23.5485, 23.5485
103.44, (299.231,48.835), 104.5189, 100.0, 105.65890870976187, 105.6, 105.6, 0.4839, -0.1259, -6.2933, 24.1949, 24.1949
104.76, (298.823,50.792), 105.8389, 100.0, 105.11889564694819, 103.32, 103.32, 0.4851, -0.1213, -6.065, 24.2532, 24.2532
109.74, (298.189,52.688), 110.8189, 100.0, 110.81887987244662, 109.74, 109.74, 0.4706, -0.1689, -8.4438, 23.5309, 23.5309
109.08, (297.514,54.571), 110.1589, 100.0, 110.45886317092533, 109.74, 109.74, 0.4717, -0.1659, -8.2958, 23.5835, 23.5835
99.36, (297.071,56.313), 100.4388, 100.0, 101.27884577933446, 101.22, 101.22, 0.4921, -0.0885, -4.4271, 24.6049, 24.6049
109.14, (296.588,58.251), 110.2188, 100.0, 109.85882850142826, 107.4, 107.4, 0.4734, -0.161, -8.0484, 23.669, 23.669
100.62, (296.063,60.178), 101.6988, 100.0, 101.69881732498598, 101.7, 101.7, 0.4914, -0.0921, -4.6074, 24.5718, 24.5718
107.46, (295.673,61.934), 108.5388, 100.0, 107.51880257203966, 105.3, 105.3, 0.4796, -0.1415, -7.0753, 23.9779, 23.9779
112.68, (295.002,63.818), 113.7588, 100.0, 112.73878341023612, 110.64, 110.64, 0.4647, -0.1845, -9.2275, 23.2348, 23.2348
117.9, (294.098,65.6), 118.9788, 100.0, 119.27876208854863, 119.22, 119.22, 0.4407, -0.2363, -11.8138, 22.0326, 22.0326
110.58, (293.319,67.44), 111.6587, 100.0, 111.35874671475146, 109.56, 109.56, 0.469, -0.1733, -8.6652, 23.4502, 23.4502
119.58, (292.547,69.064), 120.6587, 100.0, 120.6587327339253, 118.56, 118.56, 0.4348, -0.2468, -12.341, 21.7417, 21.7417
119.58, (291.56,70.803), 120.6587, 100.0, 120.65871373446595, 119.58, 119.58, 0.4348, -0.2468, -12.341, 21.7417, 21.7417
119.58, (290.572,72.542), 120.6587, 100.0, 120.65870044972174, 119.58, 119.58, 0.4348, -0.2468, -12.341, 21.7417, 21.7417
119.58, (289.585,74.282), 120.6587, 100.0, 120.65868031805708, 119.58, 119.58, 0.4348, -0.2468, -12.341, 21.7417, 21.7417
126.12, (288.527,75.977), 127.1987, 100.0, 127.19866188797864, 125.1, 125.1, 0.4039, -0.2947, -14.737, 20.1946, 20.1946
123.42, (287.322,77.572), 124.4986, 100.0, 124.49864709092239, 124.74, 124.74, 0.4173, -0.2754, -13.7693, 20.8664, 20.8664
119.34, (286.42,79.129), 120.4186, 100.0, 120.41863078726828, 119.34, 119.34, 0.4359, -0.245, -12.2498, 21.7932, 21.7932
110.88, (285.538,80.922), 111.9586, 100.0, 112.67861782867135, 112.98, 112.98, 0.4649, -0.1841, -9.2031, 23.2444, 23.2444
108.96, (284.88,82.81), 110.0386, 100.0, 110.03859799101573, 108.96, 108.96, 0.4729, -0.1625, -8.1227, 23.6436, 23.6436
101.82, (284.319,84.728), 102.8986, 100.0, 103.25858147135818, 103.32, 103.32, 0.4887, -0.1055, -5.2746, 24.4372, 24.4372
92.52, (284.08,86.711), 93.5986, 100.0, 93.59856743241, 93.66, 93.66, 0.4995, -0.022, -1.0992, 24.9758, 24.9758
88.92, (284.099,88.511), 89.9986, 100.0, 89.99855394843526, 88.92, 88.92, 0.4999, 0.0094, 0.4712, 24.9956, 24.9956
88.92, (284.136,90.511), 89.9985, 100.0, 89.99853838329003, 88.92, 88.92, 0.4999, 0.0094, 0.4712, 24.9956, 24.9956
88.92, (284.174,92.51), 89.9985, 100.0, 89.9985222098977, 88.92, 88.92, 0.4999, 0.0094, 0.4712, 24.9956, 24.9956
88.92, (284.208,94.31), 89.9985, 100.0, 89.99850534469273, 88.92, 88.92, 0.4999, 0.0094, 0.4712, 24.9956, 24.9956
88.92, (284.246,96.31), 89.9985, 100.0, 89.99849050551323, 88.92, 88.92, 0.4999, 0.0094, 0.4712, 24.9956, 24.9956
90.9, (284.278,98.309), 91.9785, 100.0, 91.25847229822566, 89.22, 89.22, 0.5, -0.0016, -0.0785, 24.9999, 24.9999
99.24, (284.077,100.297), 100.3184, 100.0, 100.31844840866474, 99.24, 99.24, 0.4935, -0.0803, -4.0143, 24.6756, 24.6756
106.56, (283.708,102.057), 107.6384, 100.0, 106.85842966978021, 104.7, 104.7, 0.4812, -0.136, -6.7986, 24.0578, 24.0578
109.26, (283.064,103.951), 110.3384, 100.0, 110.33841135132896, 109.26, 109.26, 0.472, -0.1649, -8.2464, 23.6008, 23.6008
109.26, (282.404,105.839), 110.3384, 100.0, 110.33839299923388, 109.26, 109.26, 0.472, -0.1649, -8.2464, 23.6008, 23.6008
105.24, (281.769,107.735), 106.3184, 100.0, 106.97838013553826, 106.86, 106.86, 0.4809, -0.137, -6.849, 24.0435, 24.0435
99.06, (281.387,109.696), 100.1384, 100.0, 100.13836111370355, 99.06, 99.06, 0.4938, -0.0787, -3.9367, 24.6881, 24.6881
95.58, (281.094,111.674), 96.6583, 100.0, 96.95834490608347, 97.02, 97.02, 0.4974, -0.0512, -2.5611, 24.8685, 24.8685
89.04, (281.054,113.473), 90.1183, 100.0, 90.11832896478386, 89.04, 89.04, 0.4999, 0.0084, 0.4189, 24.9965, 24.9965
89.04, (281.088,115.473), 90.1183, 100.0, 90.11831011002988, 89.04, 89.04, 0.4999, 0.0084, 0.4189, 24.9965, 24.9965
98.04, (280.986,117.467), 99.1183, 100.0, 98.75829557133166, 96.6, 96.6, 0.4955, -0.0668, -3.341, 24.7757, 24.7757
95.88, (280.694,119.445), 96.9583, 100.0, 96.95827836634385, 97.02, 97.02, 0.4974, -0.0512, -2.5611, 24.8685, 24.8685
88.86, (280.655,121.244), 89.9383, 100.0, 89.93826074806084, 88.86, 88.86, 0.4999, 0.0099, 0.4974, 24.9951, 24.9951
88.86, (280.695,123.243), 89.9382, 100.0, 89.93823966084689, 88.86, 88.86, 0.4999, 0.0099, 0.4974, 24.9951, 24.9951
88.86, (280.735,125.243), 89.9382, 100.0, 89.9382248808365, 88.86, 88.86, 0.4999, 0.0099, 0.4974, 24.9951, 24.9951
97.2, (280.662,127.039), 98.2782, 100.0, 97.61821118812588, 95.46, 95.46, 0.4967, -0.0569, -2.8474, 24.8373, 24.8373
98.88, (280.359,129.016), 99.9582, 100.0, 99.95819458855934, 98.88, 98.88, 0.494, -0.0772, -3.8591, 24.7003, 24.7003
95.22, (280.07,130.995), 96.2982, 100.0, 96.9581771143797, 97.14, 97.14, 0.4974, -0.0512, -2.5611, 24.8685, 24.8685
88.62, (280.04,132.993), 89.6982, 100.0, 89.69815926713495, 88.62, 88.62, 0.4999, 0.012, 0.6021, 24.9927, 24.9927
88.62, (280.083,134.793), 89.6981, 100.0, 89.69814658763556, 88.62, 88.62, 0.4999, 0.012, 0.6021, 24.9927, 24.9927
88.62, (280.131,136.792), 89.6981, 100.0, 89.69813137776006, 88.62, 88.62, 0.4999, 0.012, 0.6021, 24.9927, 24.9927
80.34, (280.307,138.782), 81.4181, 100.0, 81.41811862920592, 81.36, 81.36, 0.4929, 0.0839, 4.195, 24.6455, 24.6455
74.76, (280.681,140.542), 75.8381, 100.0, 76.4981056773318, 76.8, 76.8, 0.4839, 0.1259, 6.2933, 24.1949, 24.1949
68.34, (281.352,142.425), 69.4181, 100.0, 69.41808872775805, 68.34, 68.34, 0.4647, 0.1845, 9.2275, 23.2348, 23.2348
75.36, (282.012,144.311), 76.4381, 100.0, 76.07808133508017, 73.62, 73.62, 0.483, 0.1294, 6.4705, 24.1481, 24.1481
72.9, (282.488,146.253), 73.9781, 100.0, 73.97806117501271, 73.92, 73.92, 0.4779, 0.147, 7.351, 23.8948, 23.8948
70.26, (283.122,147.937), 71.338, 100.0, 70.37804484811556, 68.46, 68.46, 0.4677, 0.1767, 8.8369, 23.3861, 23.3861
78.54, (283.639,149.867), 79.618, 100.0, 79.61802673597386, 78.54, 78.54, 0.49, 0.0993, 4.9671, 24.5016, 24.5016
78.54, (283.996,151.631), 79.618, 100.0, 79.61801236276038, 78.54, 78.54, 0.49, 0.0993, 4.9671, 24.5016, 24.5016
78.54, (284.394,153.591), 79.618, 100.0, 79.61799417911497, 78.54, 78.54, 0.49, 0.0993, 4.9671, 24.5016, 24.5016
87.96, (284.646,155.572), 89.038, 100.0, 88.31798124768264, 86.16, 86.16, 0.4994, 0.0241, 1.2038, 24.971, 24.971
84.54, (284.725,157.57), 85.618, 100.0, 85.91796676516023, 85.92, 85.92, 0.498, 0.045, 2.2484, 24.8987, 24.8987
78.48, (285.066,159.54), 79.558, 100.0, 79.55795086602676, 78.48, 78.48, 0.4899, 0.0999, 4.9927, 24.4964, 24.4964
75.66, (285.436,161.301), 76.7379, 100.0, 77.45793503699032, 77.46, 77.46, 0.4859, 0.1177, 5.887, 24.297, 24.297
68.4, (286.084,163.191), 69.4779, 100.0, 69.47791771621017, 68.4, 68.4, 0.4649, 0.1841, 9.2031, 23.2444, 23.2444
68.4, (286.82,165.051), 69.4779, 100.0, 69.47790436522928, 68.4, 68.4, 0.4649, 0.1841, 9.2031, 23.2444, 23.2444
59.82, (287.589,166.676), 60.8979, 100.0, 61.61788826013357, 61.56, 61.56, 0.4353, 0.2459, 12.2954, 21.7675, 21.7675
58.08, (288.642,168.377), 59.1579, 100.0, 59.157872675818325, 58.08, 58.08, 0.4244, 0.2644, 13.2184, 21.2197, 21.2197
58.08, (289.699,170.074), 59.1579, 100.0, 59.15785887286258, 58.08, 58.08, 0.4244, 0.2644, 13.2184, 21.2197, 21.2197
58.08, (290.651,171.602), 59.1578, 100.0, 59.15784729178024, 58.08, 58.08, 0.4244, 0.2644, 13.2184, 21.2197, 21.2197
63.42, (291.665,173.325), 64.4978, 100.0, 64.13783377295347, 62.04, 62.04, 0.4457, 0.2265, 11.3264, 22.287, 22.287
64.14, (292.473,175.153), 65.2178, 100.0, 65.21781690685879, 65.16, 65.16, 0.4499, 0.2181, 10.9043, 22.4966, 22.4966
61.68, (293.367,176.715), 62.7578, 100.0, 62.03780683646531, 59.64, 59.64, 0.4371, 0.2427, 12.1355, 21.857, 21.857
65.94, (294.189,178.537), 67.0178, 100.0, 67.01778966617036, 67.02, 67.02, 0.4566, 0.2038, 10.1923, 22.828, 22.828
57.78, (295.059,180.111), 58.8578, 100.0, 59.217776446216014, 58.14, 58.14, 0.4247, 0.2639, 13.1961, 21.2335, 21.2335
48, (296.261,181.706), 49.0778, 100.0, 49.4977642517103, 49.14, 49.14, 0.374, 0.3318, 16.5916, 18.7007, 18.7007
38.22, (297.713,183.077), 39.2977, 100.0, 39.95774956997945, 39.9, 39.9, 0.3138, 0.3892, 19.4616, 15.6923, 15.6923
37.08, (299.292,184.305), 38.1577, 100.0, 38.93773370512818, 37.86, 37.86, 0.3069, 0.3948, 19.7378, 15.3434, 15.3434
27.6, (300.988,185.36), 28.6777, 100.0, 28.677717254096425, 28.26, 28.26, 0.2316, 0.4431, 22.1551, 11.5824, 11.5824
25.56, (302.585,186.191), 26.6377, 100.0, 27.657700594474232, 27.6, 27.6, 0.2237, 0.4472, 22.3578, 11.1862, 11.1862
16.68, (304.452,186.901), 17.7577, 100.0, 18.41768036935642, 17.34, 17.34, 0.149, 0.4773, 23.8638, 7.451, 7.451
7.32, (306.408,187.308), 8.3977, 100.0, 8.397658655818654, 8.04, 8.04, 0.0637, 0.4959, 24.7963, 3.1853, 3.1853
17.52, (308.356,187.745), 18.5976, 100.0, 18.17763784196372, 16.32, 16.32, 0.147, 0.4779, 23.8948, 7.351, 7.351
17.52, (310.264,188.348), 18.5976, 100.0, 18.59761691516117, 17.52, 17.52, 0.1505, 0.4768, 23.8403, 7.526, 7.526
17.52, (311.98,188.889), 18.5976, 100.0, 18.597594989124694, 17.52, 17.52, 0.1505, 0.4768, 23.8403, 7.526, 7.526
15.72, (313.889,189.485), 16.7976, 100.0, 17.157577478859984, 17.16, 17.16, 0.1385, 0.4804, 24.0219, 6.9245, 6.9245
7.26, (315.852,189.858), 8.3376, 100.0, 8.33756425525523, 7.26, 7.26, 0.0632, 0.496, 24.7996, 3.1593, 3.1593
13.32, (317.629,190.139), 14.3975, 100.0, 13.677546962365076, 11.46, 11.46, 0.1091, 0.488, 24.3979, 5.4536, 5.4536
17.52, (319.546,190.706), 18.5975, 100.0, 18.59752970862068, 17.52, 17.52, 0.1505, 0.4768, 23.8403, 7.526, 7.526
22.68, (321.439,191.348), 23.7575, 100.0, 23.397514123251018, 20.7, 20.7, 0.1899, 0.4625, 23.1269, 9.4945, 9.4945
32.16, (323.212,192.269), 33.2375, 100.0, 32.81749770655848, 31.08, 31.08, 0.263, 0.4252, 21.2611, 13.1516, 13.1516
34.2, (324.674,193.318), 35.2775, 100.0, 36.05748588879464, 36.12, 36.12, 0.2866, 0.4097, 20.4838, 14.3323, 14.3323
24.66, (326.411,194.304), 25.7375, 100.0, 26.397463828639367, 26.46, 26.46, 0.2138, 0.452, 22.5983, 10.6918, 10.6918
15, (328.29,194.982), 16.0774, 100.0, 16.91744704412775, 16.86, 16.86, 0.1365, 0.481, 24.0507, 6.8238, 6.8238
5.76, (330.059,195.308), 6.8374, 100.0, 7.857432833293442, 7.44, 7.44, 0.059, 0.4965, 24.8252, 2.9514, 2.9514
357.24, (332.056,195.348), 358.3226, 100.0, 358.3225734741648, -2.76, -2.76, -0.0241, 0.4994, 24.971, -1.2038, -1.2038
356.88, (334.053,195.251), 357.9626, 100.0, 357.96255495226626, -2.76, -2.76, -0.0272, 0.4993, 24.9629, -1.3607, -1.3607
347.1, (335.832,194.988), 348.1825, 100.0, 348.54253885043636, -11.82, -11.82, -0.1086, 0.4881, 24.4036, -5.428, -5.428
342.24, (337.77,194.496), 343.3225, 100.0, 343.3225233873374, -16.62, -16.62, -0.1525, 0.4762, 23.8086, -7.6258, -7.6258
336.48, (339.622,193.744), 337.9825, 100.0, 337.98250617363004, -23.52, -23.52, -0.1995, 0.4585, 22.923, -9.9767, -9.9767
326.7, (341.204,192.889), 328.2025, 100.0, 328.9824928437103, -31.44, -31.44, -0.2688, 0.4216, 21.0801, -13.4398, -13.4398
326.34, (342.868,191.78), 327.8425, 100.0, 327.842479119407, -33.66, -33.66, -0.2771, 0.4162, 20.8085, -13.8566, -13.8566
326.34, (344.533,190.672), 327.8425, 100.0, 327.8424646587597, -33.66, -33.66, -0.2771, 0.4162, 20.8085, -13.8566, -13.8566
332.22, (346.23,189.616), 333.7224, 100.0, 333.3624453329124, -29.34, -29.34, -0.2358, 0.4409, 22.0449, -11.7907, -11.7907
336.42, (347.868,188.871), 337.9224, 100.0, 337.9224315531925, -23.58, -23.58, -0.2, 0.4583, 22.9126, -10.0007, -10.0007
336.42, (349.701,188.071), 337.9224, 100.0, 337.92241976820577, -23.58, -23.58, -0.2, 0.4583, 22.9126, -10.0007, -10.0007
339.12, (351.538,187.281), 340.6224, 100.0, 339.8424015554801, -22.44, -22.44, -0.1845, 0.4647, 23.2348, -9.2275, -9.2275
346.68, (353.458,186.725), 348.1824, 100.0, 348.18238277470317, -13.32, -13.32, -0.1152, 0.4865, 24.3275, -5.7597, -5.7597
339.84, (355.191,186.244), 341.3424, 100.0, 342.3623672994781, -18.18, -18.18, -0.1639, 0.4724, 23.618, -8.1969, -8.1969
332.34, (357.022,185.443), 333.8424, 100.0, 334.56235390432795, -26.22, -26.22, -0.2265, 0.4457, 22.287, -11.3264, -11.3264
330.24, (358.735,184.411), 331.7423, 100.0, 331.3223302848371, -30.96, -30.96, -0.2514, 0.4322, 21.6113, -12.568, -12.568
336.72, (360.543,183.561), 338.2223, 100.0, 338.22231874200054, -23.28, -23.28, -0.1976, 0.4593, 22.9646, -9.8806, -9.8806
336.72, (362.197,182.849), 338.2223, 100.0, 338.2223036788355, -23.28, -23.28, -0.1976, 0.4593, 22.9646, -9.8806, -9.8806
343.08, (364.057,182.119), 344.5823, 100.0, 343.9222864448438, -18.66, -18.66, -0.151, 0.4766, 23.8324, -7.5509, -7.5509
341.58, (365.984,181.587), 343.0823, 100.0, 343.0822719287785, -17.28, -17.28, -0.158, 0.4744, 23.7191, -7.8995, -7.8995
336.9, (367.651,180.908), 338.4023, 100.0, 338.40225670071624, -23.1, -23.1, -0.1962, 0.4599, 22.9955, -9.8084, -9.8084
331.86, (369.472,180.084), 333.3622, 100.0, 333.7222390802402, -26.64, -26.64, -0.233, 0.4424, 22.1186, -11.6519, -11.6519
329.88, (371.18,179.043), 331.3822, 100.0, 331.38222330365664, -31.14, -31.14, -0.2509, 0.4325, 21.6244, -12.5453, -12.5453
336.84, (372.989,178.195), 338.3422, 100.0, 338.3422132788366, -22.86, -22.86, -0.1967, 0.4597, 22.9853, -9.8325, -9.8325
327, (374.574,177.346), 328.5022, 100.0, 329.2221960420087, -31.26, -31.26, -0.267, 0.4227, 21.1362, -13.3514, -13.3514
336.54, (376.329,176.392), 338.0422, 100.0, 337.6821817339836, -24.9, -24.9, -0.2019, 0.4574, 22.8705, -10.0966, -10.0966
328.56, (378.113,175.494), 330.0622, 100.0, 330.06216214246075, -30.42, -30.42, -0.2608, 0.4266, 21.3297, -13.0401, -13.0401
327.18, (379.627,174.521), 328.6821, 100.0, 328.68214990927214, -32.82, -32.82, -0.271, 0.4202, 21.0094, -13.55, -13.55
322.74, (381.29,173.411), 324.2421, 100.0, 324.9021348360481, -35.52, -35.52, -0.2981, 0.4014, 20.0704, -14.9056, -14.9056
317.1, (382.644,172.226), 318.6021, 100.0, 318.60212705355565, -42.9, -42.9, -0.3404, 0.3663, 18.3136, -17.018, -17.018
318.54, (384.111,170.867), 320.0421, 100.0, 319.38210762711674, -42.9, -42.9, -0.3353, 0.3709, 18.5435, -16.7671, -16.7671
326.7, (385.713,169.673), 328.2021, 100.0, 328.8620937734831, -33.06, -33.06, -0.2697, 0.421, 21.0519, -13.484, -13.484
317.28, (387.279,168.434), 318.7821, 100.0, 318.78208290534786, -42, -42, -0.3392, 0.3673, 18.3669, -16.9604, -16.9604
307.32, (388.491,167.105), 308.8221, 100.0, 309.90206821982883, -50.88, -50.88, -0.3918, 0.3106, 15.5287, -19.5923, -19.5923
311.7, (389.72,165.528), 313.2021, 100.0, 312.42205352861095, -50.16, -50.16, -0.3778, 0.3275, 16.3751, -18.8906, -18.8906
313.68, (391.133,164.114), 315.182, 100.0, 315.54203414753715, -44.94, -44.94, -0.3594, 0.3476, 17.379, -17.9714, -17.9714
304.02, (392.378,162.552), 305.522, 100.0, 305.88202014573915, -54.66, -54.66, -0.4127, 0.2823, 14.117, -20.6328, -20.6328
294.96, (393.346,160.804), 296.462, 100.0, 296.46200157263144, -64.02, -64.02, -0.4533, 0.211, 10.5496, -22.6651, -22.6651
286.74, (393.954,159.112), 288.242, 100.0, 288.2419860959571, -73.26, -73.26, -0.4788, 0.144, 7.2007, -23.9405, -23.9405
286.74, (394.53,157.196), 288.242, 100.0, 288.24196669117885, -73.26, -73.26, -0.4788, 0.144, 7.2007, -23.9405, -23.9405
288.6, (395.115,155.284), 290.102, 100.0, 290.1019508014101, -72.42, -72.42, -0.4739, 0.1595, 7.974, -23.6942, -23.6942
296.76, (395.832,153.635), 298.2619, 100.0, 298.26193376281833, -63.24, -63.24, -0.4465, 0.2251, 11.2564, -22.3225, -22.3225
288.24, (396.625,151.801), 289.7419, 100.0, 290.46192034104894, -69.96, -69.96, -0.4729, 0.1625, 8.1227, -23.6436, -23.6436
286.74, (397.205,149.887), 288.2419, 100.0, 288.241906801722, -73.26, -73.26, -0.4788, 0.144, 7.2007, -23.9405, -23.9405
276.78, (397.606,147.93), 278.2819, 100.0, 278.28188620747505, -82.08, -82.08, -0.4965, 0.059, 2.9514, -24.8252, -24.8252
276.42, (397.807,146.142), 277.9219, 100.0, 277.92187129688006, -83.58, -83.58, -0.4969, 0.0559, 2.7954, -24.8432, -24.8432
282.96, (398.109,144.166), 284.4619, 100.0, 284.1018592086828, -78.18, -78.18, -0.488, 0.1091, 5.4536, -24.3979, -24.3979
286.44, (398.66,142.244), 287.9418, 100.0, 287.94184163745695, -73.56, -73.56, -0.4796, 0.1415, 7.0753, -23.9779, -23.9779
292.14, (399.22,140.534), 293.6418, 100.0, 293.22182471438555, -69.72, -69.72, -0.4645, 0.185, 9.2518, -23.2251, -23.2251
291.48, (400.047,138.714), 292.9818, 100.0, 293.701809459677, -66.78, -66.78, -0.4629, 0.1889, 9.446, -23.1468, -23.1468
282.42, (400.621,136.8), 283.9218, 100.0, 283.9217917948001, -76.5, -76.5, -0.4883, 0.1075, 5.3769, -24.4149, -24.4149
272.46, (400.864,134.817), 273.9618, 100.0, 274.3217715037626, -86.16, -86.16, -0.4994, 0.0246, 1.23, -24.9697, -24.9697
267.06, (400.805,133.02), 268.5618, 100.0, 267.481758380481, -94.02, -94.02, -0.4988, -0.0351, -1.7526, -24.9385, -24.9385
276.18, (400.863,131.023), 277.6817, 100.0, 277.6817444329456, -84.9, -84.9, -0.4971, 0.0538, 2.6913, -24.8547, -24.8547
276.18, (401.079,129.035), 277.6817, 100.0, 277.6817237615243, -83.82, -83.82, -0.4971, 0.0538, 2.6913, -24.8547, -24.8547
267.3, (401.146,127.038), 268.8017, 100.0, 268.80170867199104, -91.68, -91.68, -0.4994, -0.0236, -1.1777, -24.9722, -24.9722
265.98, (401.021,125.243), 267.4817, 100.0, 267.48169698632114, -94.02, -94.02, -0.4988, -0.0351, -1.7526, -24.9385, -24.9385
263.28, (400.872,123.248), 264.7817, 100.0, 265.74167735262733, -94.74, -94.74, -0.4975, -0.0502, -2.509, -24.8738, -24.8738
255.96, (400.483,121.289), 257.4617, 100.0, 257.461664202258, -104.04, -104.04, -0.4851, -0.1213, -6.065, -24.2532, -24.2532
262.56, (400.078,119.332), 264.0616, 100.0, 264.06164914644467, -98.58, -98.58, -0.4958, -0.0647, -3.2372, -24.7895, -24.7895
267.3, (399.945,117.537), 268.8016, 100.0, 268.14163105037164, -93.72, -93.72, -0.4991, -0.0293, -1.4652, -24.957, -24.957
267.06, (399.937,115.538), 268.1416, 100.0, 268.8616136667651, -91.2, -91.2, -0.4996, -0.0194, -0.9684, -24.9812, -24.9812
265.98, (399.735,113.549), 267.0616, 100.0, 266.701601382268, -95.4, -95.4, -0.4985, -0.0382, -1.9093, -24.927, -24.927
272.04, (399.75,111.55), 273.1216, 100.0, 273.12158270845873, -87.96, -87.96, -0.4997, 0.0178, 0.8899, -24.9842, -24.9842
273.06, (399.815,109.751), 274.1416, 100.0, 273.4215643911059, -87.96, -87.96, -0.4996, 0.0204, 1.0207, -24.9792, -24.9792
282.36, (400.101,107.774), 283.4415, 100.0, 283.4415481537905, -78.06, -78.06, -0.4884, 0.107, 5.3513, -24.4205, -24.4205
292.68, (400.718,105.874), 293.7615, 100.0, 293.76153135930065, -68.52, -68.52, -0.4613, 0.1928, 9.6396, -23.0668, -23.0668
285.6, (401.346,104.189), 286.6815, 100.0, 287.8215179036075, -72.12, -72.12, -0.4788, 0.144, 7.2007, -23.9405, -23.9405
285.18, (401.812,102.244), 286.2615, 100.0, 285.6015041041131, -76.62, -76.62, -0.484, 0.1254, 6.2679, -24.2015, -24.2015
293.46, (402.49,100.365), 294.5415, 100.0, 293.88149085652077, -67.2, -67.2, -0.4609, 0.1938, 9.6879, -23.0466, -23.0466
302.94, (403.44,98.608), 304.0215, 100.0, 304.021469478317, -57.78, -57.78, -0.4196, 0.2719, 13.594, -20.981, -20.981
302.94, (404.528,96.93), 304.0215, 100.0, 304.02145242295694, -57.06, -57.06, -0.4196, 0.2719, 13.594, -20.981, -20.981
293.58, (405.386,95.35), 294.6614, 100.0, 295.38143956086236, -64.68, -64.68, -0.4557, 0.2058, 10.2879, -22.7851, -22.7851
292.86, (406.164,93.507), 293.9414, 100.0, 293.94142385290826, -67.14, -67.14, -0.4607, 0.1942, 9.712, -23.0364, -23.0364
292.86, (406.941,91.664), 293.9414, 100.0, 293.94141344745583, -67.14, -67.14, -0.4607, 0.1942, 9.712, -23.0364, -23.0364
297.84, (407.766,89.844), 298.9214, 100.0, 298.9214034431825, -63.18, -63.18, -0.4421, 0.2335, 11.6751, -22.1064, -22.1064
298.74, (408.694,88.302), 299.8214, 100.0, 300.5413907970405, -59.46, -59.46, -0.4353, 0.2459, 12.2954, -21.7675, -21.7675
289.2, (409.51,86.478), 290.2814, 100.0, 290.88137287514485, -69.12, -69.12, -0.4704, 0.1694, 8.4684, -23.522, -23.522
280.08, (410.005,84.543), 281.1614, 100.0, 281.58136183004007, -78.84, -78.84, -0.4916, 0.0911, 4.5559, -24.5814, -24.5814
273.42, (410.185,82.553), 274.5013, 100.0, 274.5013437917783, -87.3, -87.3, -0.4991, 0.0298, 1.4914, -24.9555, -24.9555
282.9, (410.448,80.774), 283.9813, 100.0, 283.62132835763913, -78.48, -78.48, -0.4881, 0.1086, 5.428, -24.4036, -24.4036
273, (410.734,78.797), 274.0813, 100.0, 274.44131177526407, -85.32, -85.32, -0.4991, 0.0293, 1.4652, -24.957, -24.957
272.58, (410.824,76.799), 273.6613, 100.0, 273.6612942436506, -87.42, -87.42, -0.4995, 0.0225, 1.1254, -24.9747, -24.9747
264.24, (410.792,74.802), 265.3213, 100.0, 265.62127843295826, -94.44, -94.44, -0.4977, -0.0476, -2.3788, -24.8866, -24.8866
262.5, (410.56,73.017), 263.5813, 100.0, 263.58126463766223, -97.5, -97.5, -0.4957, -0.0653, -3.2632, -24.7861, -24.7861
262.5, (410.299,71.034), 263.5813, 100.0, 263.58125144138927, -97.5, -97.5, -0.4957, -0.0653, -3.2632, -24.7861, -24.7861
262.5, (410.038,69.051), 263.5812, 100.0, 263.58123660033175, -97.5, -97.5, -0.4957, -0.0653, -3.2632, -24.7861, -24.7861
262.5, (409.777,67.068), 263.5812, 100.0, 263.5812181835195, -97.5, -97.5, -0.4957, -0.0653, -3.2632, -24.7861, -24.7861
271.68, (409.678,65.073), 272.7612, 100.0, 272.76120483463467, -89.1, -89.1, -0.4998, 0.0147, 0.7329, -24.9893, -24.9893
272.64, (409.761,63.275), 273.7212, 100.0, 273.72118582779154, -87.36, -87.36, -0.4995, 0.023, 1.1515, -24.9735, -24.9735
264.54, (409.739,61.278), 265.6212, 100.0, 265.9811653053206, -94.14, -94.14, -0.498, -0.0444, -2.2224, -24.901, -24.901
265.98, (409.502,59.292), 267.0611, 100.0, 266.70114859449365, -95.52, -95.52, -0.4985, -0.0382, -1.9093, -24.927, -24.927
272.4, (409.51,57.493), 273.4811, 100.0, 273.4811313992735, -87.6, -87.6, -0.4996, 0.0209, 1.0469, -24.9781, -24.9781
272.4, (409.594,55.495), 273.4811, 100.0, 273.48110946207544, -87.6, -87.6, -0.4996, 0.0209, 1.0469, -24.9781, -24.9781
272.4, (409.678,53.497), 273.4811, 100.0, 273.48109299024884, -87.6, -87.6, -0.4996, 0.0209, 1.0469, -24.9781, -24.9781
265.26, (409.674,51.499), 266.3411, 100.0, 266.7010753080033, -93.36, -93.36, -0.4985, -0.0382, -1.9093, -24.927, -24.927
262.02, (409.412,49.516), 263.1011, 100.0, 263.1010636650532, -97.98, -97.98, -0.4952, -0.0694, -3.4707, -24.7579, -24.7579
262.02, (409.162,47.733), 263.101, 100.0, 263.1010496249649, -97.98, -97.98, -0.4952, -0.0694, -3.4707, -24.7579, -24.7579
263.34, (408.886,45.753), 264.421, 100.0, 263.4610380674757, -97.98, -97.98, -0.4956, -0.0663, -3.3151, -24.7792, -24.7792
272.64, (408.818,43.756), 273.721, 100.0, 273.3010187134437, -88.14, -88.14, -0.4996, 0.0194, 0.9684, -24.9812, -24.9812
282.3, (409.083,41.777), 283.381, 100.0, 283.3810029097393, -78.78, -78.78, -0.4885, 0.1065, 5.3258, -24.4261, -24.4261
284.7, (409.519,39.825), 285.781, 100.0, 285.4209896375516, -76.68, -76.68, -0.4844, 0.1238, 6.1919, -24.2211, -24.2211
292.38, (410.117,38.129), 293.461, 100.0, 293.46097798161645, -67.62, -67.62, -0.4623, 0.1904, 9.5187, -23.117, -23.117
292.38, (410.878,36.279), 293.461, 100.0, 293.4609615759777, -67.62, -67.62, -0.4623, 0.1904, 9.5187, -23.117, -23.117
282.36, (411.472,34.372), 283.441, 100.0, 283.80095033482894, -76.14, -76.14, -0.4877, 0.1101, 5.5047, -24.3864, -24.3864
282.36, (411.857,32.614), 283.4409, 100.0, 283.4409324857228, -77.64, -77.64, -0.4884, 0.107, 5.3513, -24.4205, -24.4205
286.32, (412.31,30.666), 287.4009, 100.0, 287.04091641724364, -75.42, -75.42, -0.4807, 0.1375, 6.8742, -24.0363, -24.0363
295.32, (413.024,28.8), 296.4009, 100.0, 295.68089737871384, -66.36, -66.36, -0.4546, 0.2081, 10.407, -22.7309, -22.7309
302.82, (414.025,27.071), 303.9009, 100.0, 303.9008827941778, -57.18, -57.18, -0.4202, 0.271, 13.55, -21.0094, -21.0094
311.04, (415.212,25.464), 312.1209, 100.0, 312.1208608062665, -50.04, -50.04, -0.3771, 0.3283, 16.4146, -18.8563, -18.8563
313.02, (416.438,24.146), 314.1008, 100.0, 314.1008432412614, -46.98, -46.98, -0.3656, 0.3411, 17.0563, -18.2779, -18.2779
313.02, (417.802,22.684), 314.1008, 100.0, 314.10082886165395, -46.98, -46.98, -0.3656, 0.3411, 17.0563, -18.2779, -18.2779
306.66, (419.113,21.176), 307.7408, 100.0, 308.04081267303104, -52.02, -52.02, -0.3995, 0.3006, 15.0314, -19.9764, -19.9764
307.44, (420.248,19.529), 308.5208, 100.0, 308.16079478321427, -53.88, -53.88, -0.3989, 0.3015, 15.0732, -19.9449, -19.9449
309.18, (421.55,18.012), 310.2608, 100.0, 310.26078045203235, -49.74, -49.74, -0.3876, 0.3159, 15.794, -19.3791, -19.3791
302.76, (422.576,16.535), 303.8408, 100.0, 303.8407632913133, -57.24, -57.24, -0.4205, 0.2706, 13.528, -21.0236, -21.0236
296.16, (423.599,14.818), 297.2407, 100.0, 297.9607480443143, -62.1, -62.1, -0.446, 0.2261, 11.3031, -22.2989, -22.2989
292.62, (424.388,12.981), 293.7007, 100.0, 293.70072526460564, -67.38, -67.38, -0.4615, 0.1923, 9.6154, -23.0769, -23.0769
292.62, (425.158,11.134), 293.7007, 100.0, 293.7007109472521, -67.38, -67.38, -0.4615, 0.1923, 9.6154, -23.0769, -23.0769
301.02, (425.946,9.518), 302.1007, 100.0, 301.02069906798783, -61.14, -61.14, -0.4333, 0.2495, 12.4773, -21.6637, -21.6637
302.64, (427.019,7.83), 303.7207, 100.0, 303.7206804443855, -57.36, -57.36, -0.421, 0.2697, 13.484, -21.0519, -21.0519
302.64, (428.098,6.146), 303.7207, 100.0, 303.7206640416308, -57.36, -57.36, -0.421, 0.2697, 13.484, -21.0519, -21.0519
302.64, (429.177,4.462), 303.7206, 100.0, 303.72064657368446, -57.36, -57.36, -0.421, 0.2697, 13.484, -21.0519, -21.0519
303.06, (430.256,2.779), 304.1406, 100.0, 304.1406312755664, -57.36, -57.36, -0.419, 0.2728, 13.6379, -20.9525, -20.9525
312.66, (431.369,1.366), 313.7406, 100.0, 313.3806170375887, -48.66, -48.66, -0.3698, 0.3365, 16.8253, -18.4908, -18.4908
322.44, (432.84,0.015), 323.5206, 100.0, 323.22060242482473, -38.88, -38.88, -0.3069, 0.3948, 19.7378, -15.3434, -15.3434
313.98, (434.339,-1.305), 315.0606, 100.0, 315.0605835753721, -44.88, -44.88, -0.3598, 0.3472, 17.3602, -17.9896, -17.9896
304.44, (435.48,-2.695), 305.5206, 100.0, 306.300564622157, -53.76, -53.76, -0.4085, 0.2884, 14.4179, -20.4236, -20.4236
295.14, (436.482,-4.423), 296.2206, 100.0, 296.5205504391326, -63.36, -63.36, -0.4515, 0.2148, 10.7391, -22.5759, -22.5759
285.6, (437.181,-6.294), 286.6805, 100.0, 287.0405395633081, -72.96, -72.96, -0.4807, 0.1375, 6.8742, -24.0363, -24.0363
276.12, (437.529,-8.059), 277.2005, 100.0, 278.22052412304157, -81.78, -81.78, -0.4961, 0.0621, 3.1074, -24.8061, -24.8061
271.98, (437.635,-10.055), 273.0605, 100.0, 273.06050630683734, -88.02, -88.02, -0.4997, 0.0173, 0.8638, -24.9851, -24.9851
270.36, (437.701,-12.054), 271.4405, 100.0, 272.10049773168515, -88.02, -88.02, -0.4999, 0.0089, 0.445, -24.996, -24.996
261.78, (437.567,-13.847), 262.8605, 100.0, 262.86048460306085, -97.56, -97.56, -0.4949, -0.0715, -3.5744, -24.7432, -24.7432
263.34, (437.283,-15.827), 264.4205, 100.0, 263.58047028978234, -98.22, -98.22, -0.4957, -0.0653, -3.2632, -24.7861, -24.7861
271.86, (437.223,-17.824), 272.9405, 100.0, 272.9404569063393, -88.14, -88.14, -0.4997, 0.0162, 0.8114, -24.9868, -24.9868
271.86, (437.288,-19.822), 272.9404, 100.0, 272.9404380543289, -88.14, -88.14, -0.4997, 0.0162, 0.8114, -24.9868, -24.9868
280.2, (437.452,-21.613), 281.2804, 100.0, 280.44042146914666, -81.72, -81.72, -0.4933, 0.0813, 4.0659, -24.6671, -24.6671
289.62, (437.956,-23.546), 290.7004, 100.0, 290.340402012919, -72.06, -72.06, -0.472, 0.1649, 8.2464, -23.6008, -23.6008
298.92, (438.778,-25.367), 300.0004, 100.0, 300.00038570809494, -62.16, -62.16, -0.4376, 0.2418, 12.0897, -21.8824, -21.8824
308.76, (439.894,-27.024), 309.8404, 100.0, 309.4803681770271, -52.62, -52.62, -0.3918, 0.3106, 15.5287, -19.5923, -19.5923
311.76, (441.225,-28.516), 312.8404, 100.0, 312.84035485245005, -47.58, -47.58, -0.373, 0.333, 16.6503, -18.6485, -18.6485
302.28, (442.299,-29.958), 303.3603, 100.0, 303.6603419408055, -56.4, -56.4, -0.4213, 0.2692, 13.4619, -21.066, -21.066
312.3, (443.501,-31.553), 313.3803, 100.0, 312.66032708001677, -49.44, -49.44, -0.374, 0.3318, 16.5916, -18.7007, -18.7007
321.9, (444.952,-32.926), 322.9803, 100.0, 322.32030450025326, -40.14, -40.14, -0.313, 0.3899, 19.4944, -15.6515, -15.6515
331.26, (446.615,-34.033), 332.3403, 100.0, 332.0402862949742, -30.06, -30.06, -0.2427, 0.4371, 21.857, -12.1355, -12.1355
332.88, (448.393,-34.948), 333.9603, 100.0, 333.96026713731686, -27.12, -27.12, -0.2279, 0.445, 22.2513, -11.3964, -11.3964
342.18, (450.24,-35.709), 343.2603, 100.0, 343.26025288073333, -18.9, -18.9, -0.153, 0.476, 23.8006, -7.6507, -7.6507
346.56, (451.967,-36.215), 347.6402, 100.0, 346.6802353823045, -15.42, -15.42, -0.1243, 0.4843, 24.2146, -6.2172, -6.2172
353.22, (453.94,-36.533), 354.3002, 100.0, 354.3002193895722, -6.78, -6.78, -0.059, 0.4965, 24.8252, -2.9514, -2.9514
349.26, (455.922,-36.799), 350.3402, 100.0, 350.70020258678403, -9.42, -9.42, -0.0901, 0.4918, 24.5909, -4.5044, -4.5044
342.96, (457.851,-37.325), 344.0402, 100.0, 344.0401849207269, -17.04, -17.04, -0.1465, 0.4781, 23.9025, -7.326, -7.326
348.24, (459.778,-37.856), 349.3202, 100.0, 349.32017345064577, -12.9, -12.9, -0.1019, 0.4895, 24.4752, -5.0953, -5.0953
353.1, (461.56,-38.104), 354.1802, 100.0, 354.1801537539124, -6.9, -6.9, -0.0601, 0.4964, 24.8189, -3.0034, -3.0034
345.36, (463.53,-38.44), 346.4401, 100.0, 347.10013975093835, -12.96, -12.96, -0.1208, 0.4852, 24.2595, -6.0396, -6.0396
350.16, (465.467,-38.931), 351.2401, 100.0, 350.5201203895669, -11.46, -11.46, -0.0916, 0.4915, 24.5766, -4.5816, -4.5816
359.52, (467.457,-39.106), 0.6001, 100.0, 0.6001023224922737, -1.5, -1.5, -0.0042, 0.5, 24.9991, -0.2094, -0.2094
8.88, (469.25,-38.968), 9.9601, 100.0, 9.300086522438, 7.02, 7.02, 0.0715, 0.4949, 24.7432, 3.5744, 3.5744
18.36, (471.191,-38.497), 19.4401, 100.0, 19.140068516113235, 16.92, 16.92, 0.155, 0.4754, 23.7683, 7.7503, 7.7503
23.7, (473.04,-37.736), 24.7801, 100.0, 24.780052902446066, 23.7, 23.7, 0.201, 0.4578, 22.8916, 10.0487, 10.0487
31.14, (474.824,-36.837), 32.22, 100.0, 32.220032701671194, 30.12, 30.12, 0.2586, 0.428, 21.3977, 12.9283, 12.9283
34.8, (476.324,-35.842), 35.88, 100.0, 34.92001848216956, 33.84, 33.84, 0.2784, 0.4153, 20.7649, 13.9219, 13.9219
44.1, (477.861,-34.566), 45.18, 100.0, 45.18000340466502, 43.38, 43.38, 0.348, 0.3591, 17.9532, 17.3978, 17.3978
46.92, (479.29,-33.167), 48, 100.0, 47.219990787035854, 45.12, 45.12, 0.3605, 0.3464, 17.3225, 18.0259, 18.0259
54.3, (480.534,-31.603), 55.38, 100.0, 55.37997856152097, 54.3, 54.3, 0.406, 0.2918, 14.5885, 20.3021, 20.3021
47.1, (481.775,-30.038), 48.18, 100.0, 48.179961534697824, 48.48, 48.48, 0.3663, 0.3404, 17.018, 18.3136, 18.3136
43.68, (483.057,-28.774), 44.7599, 100.0, 45.3599476291297, 44.28, 44.28, 0.3491, 0.358, 17.8984, 17.4541, 17.4541
33.96, (484.617,-27.527), 35.0399, 100.0, 35.039926963531826, 34.74, 34.74, 0.2793, 0.4147, 20.7357, 13.9653, 13.9653
32.22, (486.278,-26.413), 33.2999, 100.0, 33.9599111996069, 33.96, 33.96, 0.2714, 0.4199, 20.9952, 13.572, 13.572
24.42, (488.054,-25.498), 25.4999, 100.0, 25.13989403673931, 23.7, 23.7, 0.2038, 0.4566, 22.828, 10.1923, 10.1923
33.78, (489.787,-24.504), 34.8599, 100.0, 34.85987240088049, 33.48, 33.48, 0.278, 0.4156, 20.7795, 13.9001, 13.9001
37.32, (491.272,-23.488), 38.3999, 100.0, 37.67986409384491, 35.52, 35.52, 0.2981, 0.4014, 20.0704, 14.9056, 14.9056
45.6, (492.761,-22.156), 46.6798, 100.0, 46.01984730327467, 43.98, 43.98, 0.3532, 0.3539, 17.6962, 17.6591, 17.6591
54.06, (494.028,-20.611), 55.1398, 100.0, 55.13983076026576, 54.06, 54.06, 0.4048, 0.2935, 14.6734, 20.2408, 20.2408
47.46, (495.137,-19.195), 48.5398, 100.0, 49.31981279985447, 49.26, 49.26, 0.373, 0.333, 16.6503, 18.6485, 18.6485
49.8, (496.52,-17.751), 50.8798, 100.0, 50.15979437141398, 48.12, 48.12, 0.3778, 0.3275, 16.3751, 18.8906, 18.8906
54.18, (497.717,-16.15), 55.2598, 100.0, 55.259781962902544, 54.18, 54.18, 0.4054, 0.2926, 14.631, 20.2715, 20.2715
54.18, (498.771,-14.69), 55.2598, 100.0, 55.25976413541614, 54.18, 54.18, 0.4054, 0.2926, 14.631, 20.2715, 20.2715
54.18, (499.941,-13.068), 55.2597, 100.0, 55.259749661764886, 54.18, 54.18, 0.4054, 0.2926, 14.631, 20.2715, 20.2715
48.66, (501.154,-11.48), 49.7397, 100.0, 50.03973015650491, 50.04, 50.04, 0.3771, 0.3283, 16.4146, 18.8563, 18.8563
49.08, (502.538,-10.036), 50.1597, 100.0, 49.79971483780981, 47.64, 47.64, 0.3757, 0.3299, 16.4935, 18.7874, 18.7874
58.26, (503.604,-8.588), 59.3397, 100.0, 58.55970054074801, 56.28, 56.28, 0.4216, 0.2688, 13.4398, 21.0801, 21.0801
64.14, (504.536,-6.82), 65.2197, 100.0, 65.21968236003416, 64.14, 64.14, 0.4499, 0.2181, 10.9043, 22.4966, 22.4966
64.14, (505.408,-5.02), 65.2197, 100.0, 65.21966580798185, 64.14, 64.14, 0.4499, 0.2181, 10.9043, 22.4966, 22.4966
73.32, (506.15,-3.166), 74.3996, 100.0, 74.03964424972251, 71.88, 71.88, 0.4781, 0.1465, 7.326, 23.9025, 23.9025
68.34, (506.689,-1.449), 69.4196, 100.0, 70.13963227578894, 70.14, 70.14, 0.467, 0.1787, 8.9348, 23.3489, 23.3489
69.54, (507.488,0.383), 70.6196, 100.0, 70.25961471364953, 68.16, 68.16, 0.4674, 0.1777, 8.8858, 23.3675, 23.3675
79.26, (508.015,2.31), 80.3396, 100.0, 79.91959426206346, 78.06, 78.06, 0.4905, 0.0968, 4.8387, 24.5273, 24.5273
84.42, (508.227,4.097), 85.4996, 100.0, 85.4995821806311, 84.42, 84.42, 0.4976, 0.0486, 2.4309, 24.8815, 24.8815
84.42, (508.421,6.088), 85.4996, 100.0, 85.4995588390477, 84.42, 84.42, 0.4976, 0.0486, 2.4309, 24.8815, 24.8815
84.42, (508.596,7.879), 85.4995, 100.0, 85.49954166173097, 84.42, 84.42, 0.4976, 0.0486, 2.4309, 24.8815, 24.8815
86.7, (508.766,9.671), 87.7795, 100.0, 86.93952659002142, 84.42, 84.42, 0.4987, 0.0361, 1.8048, 24.9348, 24.9348
94.68, (508.709,11.668), 95.7595, 100.0, 95.75951003330225, 94.68, 94.68, 0.4983, -0.0408, -2.0398, 24.9166, 24.9166
94.68, (508.546,13.661), 95.7595, 100.0, 95.75949214854731, 94.68, 94.68, 0.4983, -0.0408, -2.0398, 24.9166, 24.9166
95.7, (508.379,15.654), 96.7795, 100.0, 96.77947384948921, 94.68, 94.68, 0.4975, -0.0497, -2.483, 24.8764, 24.8764
104.94, (508.037,17.419), 106.0195, 100.0, 106.01945522818913, 104.28, 104.28, 0.4831, -0.1289, -6.4452, 24.1549, 24.1549
99.9, (507.562,19.361), 100.9794, 100.0, 101.33943999768147, 101.64, 101.64, 0.492, -0.0891, -4.4529, 24.6002, 24.6002
95.4, (507.354,21.35), 96.4794, 100.0, 96.17941835214367, 94.74, 94.74, 0.498, -0.0444, -2.2224, 24.901, 24.901
104.76, (507.035,23.119), 105.8394, 100.0, 105.4794038478397, 103.32, 103.32, 0.4843, -0.1243, -6.2172, 24.2146, 24.2146
104.76, (506.526,25.053), 105.8394, 100.0, 105.83938785787512, 104.76, 104.76, 0.4835, -0.1274, -6.3693, 24.175, 24.175
104.76, (506.067,26.794), 105.8394, 100.0, 105.83937222536713, 104.76, 104.76, 0.4835, -0.1274, -6.3693, 24.175, 24.175
104.76, (505.557,28.728), 105.8394, 100.0, 105.83935720214136, 104.76, 104.76, 0.4835, -0.1274, -6.3693, 24.175, 24.175
114.84, (504.884,30.608), 115.9193, 100.0, 115.55934162906357, 113.46, 113.46, 0.4551, -0.2072, -10.3594, 22.7526, 22.7526
110.58, (504.152,32.252), 111.6593, 100.0, 112.3193262493975, 112.38, 112.38, 0.466, -0.1811, -9.0569, 23.3018, 23.3018
104.52, (503.59,34.17), 105.5993, 100.0, 105.5993099871166, 104.52, 104.52, 0.484, -0.1254, -6.2679, 24.2015, 24.2015
104.52, (503.138,35.913), 105.5993, 100.0, 105.59929691718098, 104.52, 104.52, 0.484, -0.1254, -6.2679, 24.2015, 24.2015
95.52, (502.76,37.874), 96.5993, 100.0, 97.37927891395348, 97.38, 97.38, 0.497, -0.0549, -2.7434, 24.849, 24.849
88.44, (502.662,39.87), 89.5193, 100.0, 89.9392632772672, 89.94, 89.94, 0.4999, 0.0099, 0.4974, 24.9951, 24.9951
84.36, (502.832,41.863), 85.4392, 100.0, 85.43924728034062, 84.36, 84.36, 0.4976, 0.0491, 2.4569, 24.879, 24.879
90.6, (502.953,43.658), 91.6792, 100.0, 90.65922958346904, 88.56, 88.56, 0.5, 0.0037, 0.1833, 24.9993, 24.9993
94.44, (502.827,45.653), 95.5192, 100.0, 95.5192082850037, 94.44, 94.44, 0.4985, -0.0387, -1.9354, 24.925, 24.925
94.44, (502.672,47.647), 95.5192, 100.0, 95.51919004703561, 94.44, 94.44, 0.4985, -0.0387, -1.9354, 24.925, 24.925
96.72, (502.526,49.441), 97.7992, 100.0, 97.01917383604547, 94.8, 94.8, 0.4973, -0.0517, -2.5872, 24.8658, 24.8658
106.14, (502.131,51.399), 106.8592, 100.0, 106.85915148108046, 105.06, 105.06, 0.4803, -0.139, -6.9496, 24.0146, 24.0146
110.82, (501.524,53.093), 111.5391, 100.0, 111.17913522537688, 110.46, 110.46, 0.4685, -0.1748, -8.7388, 23.4229, 23.4229
120.54, (500.727,54.704), 121.2591, 100.0, 121.25912404328345, 119.82, 119.82, 0.4306, -0.2541, -12.7035, 21.5319, 21.5319
111.48, (499.924,56.313), 112.1991, 100.0, 112.55911156349383, 113.16, 113.16, 0.4641, -0.186, -9.3004, 23.2057, 23.2057
115.26, (499.339,57.801), 115.9791, 100.0, 114.89909870455962, 113.16, 113.16, 0.4561, -0.2048, -10.2401, 22.8066, 22.8066
114.06, (497.197,61.642), 114.7791, 100.0, 115.43906399940867, 115.74, 115.74, 0.4542, -0.2091, -10.4546, 22.7091, 22.7091
113.04, (496.466,63.503), 113.7591, 100.0, 113.33905101626534, 111.66, 111.66, 0.4615, -0.1923, -9.6154, 23.0769, 23.0769
120.54, (495.525,65.266), 121.259, 100.0, 121.25903881044344, 120.54, 120.54, 0.4306, -0.2541, -12.7035, 21.5319, 21.5319
113.76, (494.668,66.847), 114.479, 100.0, 115.43902196124053, 115.8, 115.8, 0.4542, -0.2091, -10.4546, 22.7091, 22.7091
114.78, (493.922,68.702), 115.499, 100.0, 115.13900563402112, 113.4, 113.4, 0.4553, -0.2067, -10.3356, 22.7635, 22.7635
120.24, (493.054,70.278), 120.959, 100.0, 120.9589915420365, 120.24, 120.24, 0.432, -0.2518, -12.5906, 21.5981, 21.5981
110.82, (492.172,72.07), 111.539, 100.0, 112.3189717734744, 112.62, 112.62, 0.4649, -0.1841, -9.2031, 23.2444, 23.2444
104.28, (491.589,73.773), 104.999, 100.0, 106.37895398948173, 106.74, 106.74, 0.4814, -0.135, -6.7482, 24.072, 24.072
94.98, (491.265,75.542), 95.6989, 100.0, 97.19893901583495, 97.44, 97.44, 0.4968, -0.0564, -2.8214, 24.8403, 24.8403
89.82, (491.221,77.54), 90.5389, 100.0, 90.53891908169392, 89.82, 89.82, 0.5, 0.0016, 0.0785, 24.9999, 24.9999
99.9, (491.065,79.331), 100.6189, 100.0, 99.95890604840419, 98.22, 98.22, 0.4935, -0.0803, -4.0143, 24.6756, 24.6756
99.9, (490.721,81.301), 100.6189, 100.0, 100.61889031680067, 99.9, 99.9, 0.4926, -0.086, -4.2982, 24.6277, 24.6277
90.9, (490.527,83.089), 91.6189, 100.0, 92.63887108486495, 93.06, 93.06, 0.4997, -0.0168, -0.8376, 24.986, 24.986
89.82, (490.529,85.089), 90.5389, 100.0, 90.53885514738144, 89.82, 89.82, 0.5, 0.0016, 0.0785, 24.9999, 24.9999
89.82, (490.535,87.089), 90.5388, 100.0, 90.53883956417404, 89.82, 89.82, 0.5, 0.0016, 0.0785, 24.9999, 24.9999
87.66, (490.545,88.889), 88.3788, 100.0, 89.39882380533223, 89.82, 89.82, 0.4999, 0.0115, 0.5759, 24.9934, 24.9934
80.7, (490.786,90.872), 81.4188, 100.0, 81.41880559110507, 79.62, 79.62, 0.4934, 0.0808, 4.0401, 24.6714, 24.6714
89.7, (490.915,92.665), 90.4188, 100.0, 90.41879062980833, 88.98, 88.98, 0.5, 0.0026, 0.1309, 24.9997, 24.9997
99.12, (490.772,94.658), 99.8388, 100.0, 99.4787783502124, 97.62, 97.62, 0.4942, -0.0761, -3.8074, 24.7084, 24.7084
108.54, (490.351,96.406), 109.2588, 100.0, 108.59876580045443, 106.68, 106.68, 0.4759, -0.1535, -7.6756, 23.7925, 23.7925
109.98, (489.671,98.286), 110.6987, 100.0, 110.69874545896053, 109.98, 109.98, 0.4699, -0.1708, -8.5423, 23.4953, 23.4953
112.44, (488.974,100.161), 113.1587, 100.0, 113.15872630659919, 111.42, 111.42, 0.4621, -0.1909, -9.5429, 23.107, 23.107
120, (488.148,101.759), 120.7187, 100.0, 120.71871150811991, 120, 120, 0.433, -0.25, -12.5, 21.6506, 21.6506
127.68, (487.059,103.433), 128.3987, 100.0, 128.03869209581435, 126.6, 126.6, 0.3976, -0.3031, -15.1567, 19.8815, 19.8815
130.26, (485.773,104.965), 130.9787, 100.0, 130.97866901483124, 130.26, 130.26, 0.3816, -0.3231, -16.1564, 19.078, 19.078
124.92, (484.644,106.366), 125.6386, 100.0, 126.35864760032429, 126.66, 126.66, 0.4063, -0.2913, -14.5673, 20.3174, 20.3174
119.94, (483.609,108.077), 120.6586, 100.0, 120.65863209632629, 119.94, 119.94, 0.4333, -0.2495, -12.4773, 21.6637, 21.6637
119.94, (482.611,109.81), 120.6586, 100.0, 120.65861460500251, 119.94, 119.94, 0.4333, -0.2495, -12.4773, 21.6637, 21.6637
117.6, (481.717,111.372), 118.3186, 100.0, 119.33860386329185, 119.64, 119.64, 0.4389, -0.2395, -11.975, 21.9454, 21.9454
108.24, (480.938,113.212), 108.9586, 100.0, 109.73859154888362, 109.68, 109.68, 0.4727, -0.1629, -8.1475, 23.6351, 23.6351
99.6, (480.48,115.156), 100.3186, 100.0, 100.31857405400865, 99.6, 99.6, 0.493, -0.0834, -4.1692, 24.6499, 24.6499
99.6, (480.18,116.931), 100.3186, 100.0, 100.31856031576605, 99.6, 99.6, 0.493, -0.0834, -4.1692, 24.6499, 24.6499
99.6, (479.846,118.903), 100.3186, 100.0, 100.31855012998888, 99.6, 99.6, 0.493, -0.0834, -4.1692, 24.6499, 24.6499
101.7, (479.507,120.874), 102.4185, 100.0, 101.69853474275838, 99.9, 99.9, 0.4908, -0.0952, -4.7617, 24.5423, 24.5423
109.92, (478.941,122.789), 110.6385, 100.0, 110.6385183539654, 109.92, 109.92, 0.4701, -0.1704, -8.5177, 23.5042, 23.5042
109.92, (478.327,124.482), 110.6385, 100.0, 110.63850413874995, 109.92, 109.92, 0.4701, -0.1704, -8.5177, 23.5042, 23.5042
109.92, (477.646,126.362), 110.6385, 100.0, 110.63849030817957, 109.92, 109.92, 0.4701, -0.1704, -8.5177, 23.5042, 23.5042
109.92, (476.964,128.242), 110.6385, 100.0, 110.6384751821958, 109.92, 109.92, 0.4701, -0.1704, -8.5177, 23.5042, 23.5042
106.38, (476.304,130.13), 107.0985, 100.0, 107.51846163170805, 107.82, 107.82, 0.4787, -0.1445, -7.2258, 23.933, 23.933
98.58, (475.933,131.89), 99.2984, 100.0, 100.31844918128783, 99.6, 99.6, 0.493, -0.0834, -4.1692, 24.6499, 24.6499
89.34, (475.799,133.883), 90.0584, 100.0, 90.05843119458535, 90.12, 90.12, 0.5, 0.0058, 0.288, 24.9983, 24.9983
89.34, (475.822,135.882), 90.0584, 100.0, 90.05841246321022, 89.34, 89.34, 0.5, 0.0058, 0.288, 24.9983, 24.9983
79.92, (476.008,137.871), 80.6384, 100.0, 80.6383949225831, 80.94, 80.94, 0.4923, 0.0875, 4.3756, 24.6141, 24.6141
79.26, (476.381,139.836), 79.9784, 100.0, 79.97837226160486, 79.26, 79.26, 0.4912, 0.0932, 4.6588, 24.5621, 24.5621
79.26, (476.717,141.604), 79.9784, 100.0, 79.9783586302803, 79.26, 79.26, 0.4912, 0.0932, 4.6588, 24.5621, 24.5621
79.26, (477.089,143.569), 79.9783, 100.0, 79.97834344178357, 79.26, 79.26, 0.4912, 0.0932, 4.6588, 24.5621, 24.5621
87.6, (477.33,145.352), 88.3183, 100.0, 87.11833178193129, 85.32, 85.32, 0.499, 0.0314, 1.5698, 24.9507, 24.9507
96.96, (477.273,147.349), 97.6783, 100.0, 96.5383160252485, 95.1, 95.1, 0.4974, -0.0507, -2.5351, 24.8711, 24.8711
98.7, (476.96,149.324), 99.4183, 100.0, 100.13829608778629, 99.42, 99.42, 0.4933, -0.0818, -4.0918, 24.6629, 24.6629
89.4, (476.829,151.317), 90.1183, 100.0, 90.11827910943923, 90.12, 90.12, 0.5, 0.0052, 0.2618, 24.9986, 24.9986
89.76, (476.848,153.317), 90.4783, 100.0, 90.47826640148118, 89.4, 89.4, 0.5, 0.0021, 0.1047, 24.9998, 24.9998
99.72, (476.689,155.108), 100.4383, 100.0, 99.71825379875868, 98.34, 98.34, 0.4938, -0.0782, -3.9109, 24.6922, 24.6922
99.72, (476.352,157.079), 100.4382, 100.0, 100.43823347650894, 99.72, 99.72, 0.4928, -0.0844, -4.2208, 24.6411, 24.6411
97.02, (476.028,159.052), 97.7382, 100.0, 98.03822049166371, 98.34, 98.34, 0.4959, -0.0637, -3.1853, 24.7963, 24.7963
89.46, (475.957,161.049), 90.1782, 100.0, 90.17820169094036, 89.46, 89.46, 0.5, 0.0047, 0.2356, 24.9989, 24.9989
93.06, (475.952,162.849), 93.7782, 100.0, 93.41818379915307, 91.62, 91.62, 0.4994, -0.0236, -1.1777, 24.9722, 24.9722
99.96, (475.691,164.83), 100.6782, 100.0, 100.31817350319709, 99.6, 99.6, 0.493, -0.0834, -4.1692, 24.6499, 24.6499
109.92, (475.224,166.567), 110.6382, 100.0, 109.91815894793632, 108.18, 108.18, 0.4722, -0.1644, -8.2217, 23.6094, 23.6094
100.26, (474.692,168.492), 100.9781, 100.0, 101.3381439099314, 101.76, 101.76, 0.4914, -0.0921, -4.6074, 24.5718, 24.5718
99.9, (474.348,170.462), 100.6181, 100.0, 100.61812677778026, 99.9, 99.9, 0.4926, -0.086, -4.2982, 24.6277, 24.6277
90.18, (474.174,172.451), 90.8981, 100.0, 90.8981116628721, 91.2, 91.2, 0.5, -0.0016, -0.0785, 24.9999, 24.9999
81.12, (474.302,174.245), 81.8381, 100.0, 82.49809488279848, 82.86, 82.86, 0.4949, 0.0715, 3.5744, 24.7432, 24.7432
77.58, (474.661,176.212), 78.2981, 100.0, 78.65808176591568, 79.08, 79.08, 0.489, 0.1045, 5.2234, 24.4482, 24.4482
69.78, (475.256,178.12), 70.4981, 100.0, 70.49806609393872, 69.78, 69.78, 0.4692, 0.1728, 8.6406, 23.4593, 23.4593
69.78, (475.947,179.996), 70.4981, 100.0, 70.49805105561572, 69.78, 69.78, 0.4692, 0.1728, 8.6406, 23.4593, 23.4593
78.84, (476.438,181.726), 79.558, 100.0, 79.1980393718286, 77.46, 77.46, 0.4899, 0.0999, 4.9927, 24.4964, 24.4964
79.92, (476.79,183.695), 80.638, 100.0, 80.63802169761692, 79.92, 79.92, 0.4923, 0.0875, 4.3756, 24.6141, 24.6141
83.04, (477.125,185.666), 83.758, 100.0, 83.03800569298679, 81.3, 81.3, 0.4955, 0.0668, 3.341, 24.7757, 24.7757
90, (477.209,187.663), 90.718, 100.0, 90.71798706855526, 90, 90, 0.5, 0, 0, 25, 25
92.04, (477.203,189.463), 92.758, 100.0, 92.09797381617555, 90.36, 90.36, 0.4999, -0.012, -0.6021, 24.9927, 24.9927
98.28, (476.972,191.447), 98.998, 100.0, 100.07795736757623, 100.02, 100.02, 0.4933, -0.0813, -4.0659, 24.6671, 24.6671
88.92, (476.843,193.44), 89.6379, 100.0, 90.23793634154347, 89.88, 89.88, 0.5, 0.0042, 0.2094, 24.9991, 24.9991
79.38, (477.055,195.426), 80.0979, 100.0, 80.45791788463401, 80.1, 80.1, 0.492, 0.0891, 4.4529, 24.6002, 24.6002
69.72, (477.6,197.348), 70.4379, 100.0, 70.43789672500958, 70.44, 70.44, 0.469, 0.1733, 8.6652, 23.4502, 23.4502
59.82, (478.36,198.978), 60.5379, 100.0, 61.61788237813009, 61.92, 61.92, 0.4369, 0.2432, 12.1584, 21.8443, 21.8443
54.96, (479.403,200.683), 55.6779, 100.0, 56.097866653142134, 56.4, 56.4, 0.4115, 0.2841, 14.2033, 20.5735, 20.5735
49.08, (480.664,202.235), 49.7979, 100.0, 50.097850524866345, 49.38, 49.38, 0.3795, 0.3255, 16.276, 18.9761, 18.9761
39.36, (481.956,203.485), 40.0778, 100.0, 40.377837838746096, 40.74, 40.74, 0.3191, 0.3849, 19.2461, 15.9558, 15.9558
46.98, (483.447,204.815), 47.6978, 100.0, 46.617821249525115, 44.88, 44.88, 0.3591, 0.348, 17.3978, 17.9532, 17.9532
49.38, (484.76,206.324), 50.0978, 100.0, 50.097804135551605, 49.38, 49.38, 0.3795, 0.3255, 16.276, 18.9761, 18.9761
42.9, (486.109,207.798), 43.6178, 100.0, 44.27778888283588, 44.7, 44.7, 0.3446, 0.3623, 18.1163, 17.2278, 17.2278
39.06, (487.644,209.08), 39.7778, 100.0, 39.777765974209686, 39.06, 39.06, 0.3151, 0.3882, 19.4122, 15.7533, 15.7533
31.5, (489.092,210.147), 32.2178, 100.0, 33.297751175122265, 33.48, 33.48, 0.2692, 0.4213, 21.066, 13.4619, 13.4619
36.06, (490.79,211.202), 36.7777, 100.0, 36.41773432297032, 34.32, 34.32, 0.2918, 0.406, 20.3021, 14.5885, 14.5885
39.24, (492.193,212.328), 39.9577, 100.0, 39.957719842580545, 39.24, 39.24, 0.3163, 0.3873, 19.3626, 15.8143, 15.8143
47.64, (493.672,213.672), 48.3577, 100.0, 47.27770518411574, 45.54, 45.54, 0.363, 0.3438, 17.1899, 18.1524, 18.1524
41.58, (495.05,215.119), 42.2977, 100.0, 43.01768543473183, 43.38, 43.38, 0.3365, 0.3698, 18.4908, 16.8253, 16.8253
32.34, (496.644,216.324), 33.0577, 100.0, 33.41766727453372, 33.42, 33.42, 0.2701, 0.4208, 21.0378, 13.506, 13.506
29.22, (498.208,217.213), 29.9377, 100.0, 29.93765791740617, 29.22, 29.22, 0.2441, 0.4364, 21.8188, 12.2041, 12.2041
29.22, (499.954,218.19), 29.9376, 100.0, 29.937642226839667, 29.22, 29.22, 0.2441, 0.4364, 21.8188, 12.2041, 12.2041
29.22, (501.699,219.166), 29.9376, 100.0, 29.937628720283904, 29.22, 29.22, 0.2441, 0.4364, 21.8188, 12.2041, 12.2041
20.76, (503.497,220.037), 21.4776, 100.0, 22.07760997238338, 22.44, 22.44, 0.1821, 0.4657, 23.2828, 9.1057, 9.1057
27, (505.344,220.8), 27.7176, 100.0, 27.29758828451494, 25.5, 25.5, 0.2237, 0.4472, 22.3578, 11.1862, 11.1862
22.32, (506.947,221.615), 23.0376, 100.0, 24.11756815582474, 24.42, 24.42, 0.1986, 0.4589, 22.9439, 9.9287, 9.9287
13.32, (508.845,222.242), 14.0376, 100.0, 14.637554903702526, 15, 15, 0.1203, 0.4853, 24.2658, 6.0142, 6.0142
8.76, (510.815,222.582), 9.4775, 100.0, 9.477542584219965, 8.76, 8.76, 0.0761, 0.4942, 24.7084, 3.8074, 3.8074
8.76, (512.791,222.886), 9.4775, 100.0, 9.477521075534812, 8.76, 8.76, 0.0761, 0.4942, 24.7084, 3.8074, 3.8074
4.2, (514.773,223.155), 4.9175, 100.0, 5.277502536297829, 5.64, 5.64, 0.0398, 0.4984, 24.9209, 1.9876, 1.9876
358.62, (516.572,223.161), 359.2225, 100.0, 359.22249998796264, -1.38, -1.38, -0.012, 0.4999, 24.9927, -0.6021, -0.6021
3.66, (518.571,223.155), 4.2625, 100.0, 3.662487659486952, 2.1, 2.1, 0.0267, 0.4993, 24.9644, 1.3345, 1.3345
9.24, (520.554,223.413), 9.8425, 100.0, 9.24246678599618, 8.64, 8.64, 0.0751, 0.4943, 24.7163, 3.7556, 3.7556
18.72, (522.488,223.911), 19.3224, 100.0, 19.322448995873945, 18, 18, 0.1605, 0.4735, 23.6775, 8.0236, 8.0236
9.48, (524.229,224.363), 10.0824, 100.0, 11.04243995977602, 11.52, 11.52, 0.0906, 0.4917, 24.5861, 4.5301, 4.5301
0.24, (526.217,224.559), 0.8424, 100.0, 1.8024228264306144, 2.34, 2.34, 0.0105, 0.4999, 24.9945, 0.5236, 0.5236
351.9, (528.212,224.451), 353.5824, 100.0, 354.24241641538134, -6.42, -6.42, -0.0647, 0.4958, 24.7895, -3.2372, -3.2372
348.42, (530.175,224.072), 350.1024, 100.0, 350.1024021833578, -11.58, -11.58, -0.1004, 0.4898, 24.4911, -5.0184, -5.0184
339.54, (531.909,223.594), 341.2224, 100.0, 342.36239158889265, -18.6, -18.6, -0.1654, 0.4718, 23.5921, -8.2711, -8.2711
338.16, (533.767,222.856), 339.8424, 100.0, 339.84238163584035, -21.84, -21.84, -0.186, 0.4641, 23.2057, -9.3004, -9.3004
329.52, (535.571,221.997), 331.2024, 100.0, 331.56236500278106, -29.16, -29.16, -0.2509, 0.4325, 21.6244, -12.5453, -12.5453
327.84, (537.266,220.935), 329.5224, 100.0, 329.52235278881375, -32.16, -32.16, -0.2661, 0.4233, 21.1641, -13.3071, -13.3071
327.84, (538.79,219.977), 329.5223, 100.0, 329.5223365393494, -32.16, -32.16, -0.2661, 0.4233, 21.1641, -13.3071, -13.3071
327.84, (540.483,218.913), 329.5223, 100.0, 329.5223185972924, -32.16, -32.16, -0.2661, 0.4233, 21.1641, -13.3071, -13.3071
329.22, (542.007,217.955), 330.9023, 100.0, 329.8823033635699, -32.16, -32.16, -0.2635, 0.4249, 21.2473, -13.1739, -13.1739
337.86, (543.803,217.081), 339.5423, 100.0, 339.5422874081861, -22.14, -22.14, -0.1884, 0.4631, 23.1566, -9.4218, -9.4218
337.86, (545.655,216.327), 339.5423, 100.0, 339.5422670729529, -22.14, -22.14, -0.1884, 0.4631, 23.1566, -9.4218, -9.4218
347.94, (547.376,215.807), 349.6223, 100.0, 349.26225644322926, -13.5, -13.5, -0.1075, 0.4883, 24.4149, -5.3769, -5.3769
345.54, (549.33,215.379), 347.2222, 100.0, 347.58224128551535, -13.02, -13.02, -0.1218, 0.4849, 24.2468, -6.0904, -6.0904
337.92, (551.028,214.785), 339.6022, 100.0, 339.60222443154476, -22.08, -22.08, -0.188, 0.4633, 23.1665, -9.3975, -9.3975
337.92, (552.881,214.034), 339.6022, 100.0, 339.6022064651768, -22.08, -22.08, -0.188, 0.4633, 23.1665, -9.3975, -9.3975
338.28, (554.734,213.282), 339.9622, 100.0, 339.602187326561, -22.08, -22.08, -0.188, 0.4633, 23.1665, -9.3975, -9.3975
348.12, (556.457,212.767), 349.8022, 100.0, 349.2021750601968, -13.44, -13.44, -0.108, 0.4882, 24.4093, -5.4025, -5.4025
348.12, (558.414,212.355), 349.8022, 100.0, 349.8021574869351, -11.88, -11.88, -0.1029, 0.4893, 24.4645, -5.1466, -5.1466
348.12, (560.175,211.985), 349.8021, 100.0, 349.8021446717227, -11.88, -11.88, -0.1029, 0.4893, 24.4645, -5.1466, -5.1466
351.24, (562.136,211.59), 352.9221, 100.0, 352.5621277740219, -10.14, -10.14, -0.0793, 0.4937, 24.684, -3.9626, -3.9626
357.78, (563.93,211.46), 359.4621, 100.0, 359.8221175564156, -1.86, -1.86, -0.0162, 0.4997, 24.9868, -0.8114, -0.8114
347.94, (565.911,211.205), 349.6221, 100.0, 349.6220999835519, -10.92, -10.92, -0.1045, 0.489, 24.4482, -5.2234, -5.2234
349.44, (567.868,210.794), 351.1221, 100.0, 351.12208486396725, -11.7, -11.7, -0.0916, 0.4915, 24.5766, -4.5816, -4.5816
358.08, (569.658,210.628), 359.7621, 100.0, 359.76207253410143, -1.92, -1.92, -0.0168, 0.4997, 24.986, -0.8376, -0.8376
357.42, (571.657,210.559), 359.1021, 100.0, 359.10205463353157, -1.92, -1.92, -0.0225, 0.4995, 24.9747, -1.1254, -1.1254
348.06, (573.437,210.309), 349.742, 100.0, 349.74203598413555, -11.28, -11.28, -0.1034, 0.4892, 24.4591, -5.1722, -5.1722
348.06, (575.394,209.895), 349.742, 100.0, 349.74202002931133, -11.94, -11.94, -0.1034, 0.4892, 24.4591, -5.1722, -5.1722
340.8, (577.135,209.445), 342.482, 100.0, 343.14200539098925, -17.52, -17.52, -0.159, 0.4741, 23.7025, -7.9492, -7.9492
337.98, (578.995,208.708), 339.662, 100.0, 339.66198886141353, -22.02, -22.02, -0.1875, 0.4635, 23.1763, -9.3733, -9.3733
327.96, (580.774,207.8), 329.642, 100.0, 330.0019761648972, -30.6, -30.6, -0.2626, 0.4255, 21.2749, -13.1294, -13.1294
336.12, (582.349,206.933), 337.802, 100.0, 336.78196146806283, -25.92, -25.92, -0.2105, 0.4535, 22.6761, -10.5259, -10.5259
338.16, (584.202,206.181), 339.8419, 100.0, 339.84194365497325, -21.84, -21.84, -0.186, 0.4641, 23.2057, -9.3004, -9.3004
338.16, (585.873,205.511), 339.8419, 100.0, 339.8419224060428, -21.84, -21.84, -0.186, 0.4641, 23.2057, -9.3004, -9.3004
338.16, (587.729,204.767), 339.8419, 100.0, 339.8419075925588, -21.84, -21.84, -0.186, 0.4641, 23.2057, -9.3004, -9.3004
336.48, (589.582,204.015), 338.1619, 100.0, 338.16188736942416, -22.56, -22.56, -0.1995, 0.4585, 22.923, -9.9767, -9.9767
328.02, (591.158,203.149), 329.7019, 100.0, 329.70187310721553, -31.98, -31.98, -0.2648, 0.4241, 21.2058, -13.2406, -13.2406
328.02, (592.855,202.09), 329.7019, 100.0, 329.7018603697, -31.98, -31.98, -0.2648, 0.4241, 21.2058, -13.2406, -13.2406
327.66, (594.382,201.137), 329.3418, 100.0, 329.7018470821064, -31.98, -31.98, -0.2648, 0.4241, 21.2058, -13.2406, -13.2406
318, (595.974,199.931), 319.6818, 100.0, 319.6818353808641, -40.68, -40.68, -0.3346, 0.3716, 18.5786, -16.7283, -16.7283
312.18, (597.418,198.549), 313.8618, 100.0, 314.22181744437995, -46.44, -46.44, -0.3684, 0.3381, 16.9026, -18.4201, -18.4201
307.98, (598.671,196.991), 309.6618, 100.0, 309.6618001845797, -52.02, -52.02, -0.3941, 0.3077, 15.3847, -19.7056, -19.7056
307.98, (599.902,195.414), 309.6618, 100.0, 309.66178378550904, -52.02, -52.02, -0.3941, 0.3077, 15.3847, -19.7056, -19.7056
304.86, (600.998,193.987), 306.5418, 100.0, 307.26176695986396, -53.46, -53.46, -0.4067, 0.2909, 14.546, -20.3326, -20.3326
297.96, (602.003,192.26), 299.6418, 100.0, 299.6417508881463, -62.04, -62.04, -0.4416, 0.2344, 11.7214, -22.0819, -22.0819
290.94, (602.781,190.638), 292.6217, 100.0, 293.70174001252445, -66.96, -66.96, -0.4635, 0.1875, 9.3733, -23.1763, -23.1763
287.82, (603.411,188.74), 289.5017, 100.0, 289.50172403907357, -72.18, -72.18, -0.476, 0.153, 7.6507, -23.8006, -23.8006
287.82, (604.023,186.836), 289.5017, 100.0, 289.50170467337546, -72.18, -72.18, -0.476, 0.153, 7.6507, -23.8006, -23.8006
287.82, (604.574,185.123), 289.5017, 100.0, 289.50168772716773, -72.18, -72.18, -0.476, 0.153, 7.6507, -23.8006, -23.8006
287.82, (605.186,183.219), 289.5017, 100.0, 289.5016690238581, -72.18, -72.18, -0.476, 0.153, 7.6507, -23.8006, -23.8006
294.78, (605.872,181.341), 296.4617, 100.0, 295.8016510522449, -66.84, -66.84, -0.4563, 0.2043, 10.2162, -22.8173, -22.8173
297.9, (606.792,179.566), 299.5816, 100.0, 299.58163294697835, -62.1, -62.1, -0.4419, 0.234, 11.6982, -22.0941, -22.0941
293.94, (607.613,177.964), 295.6216, 100.0, 296.2816183659607, -64.44, -64.44, -0.4546, 0.2081, 10.407, -22.7309, -22.7309
286.44, (608.286,176.083), 288.1216, 100.0, 288.78160558287095, -72.18, -72.18, -0.4779, 0.147, 7.351, -23.8948, -23.8948
277.8, (608.681,174.124), 279.4816, 100.0, 279.48158697837187, -82.2, -82.2, -0.4954, 0.0679, 3.3929, -24.7687, -24.7687
277.8, (608.925,172.341), 279.4816, 100.0, 279.48157224127345, -82.2, -82.2, -0.4954, 0.0679, 3.3929, -24.7687, -24.7687
271.86, (609.145,170.354), 273.5416, 100.0, 274.5015562758898, -86.16, -86.16, -0.4994, 0.0246, 1.23, -24.9697, -24.9697
272.46, (609.133,168.355), 274.4415, 100.0, 273.7215393973973, -89.22, -89.22, -0.4998, 0.0152, 0.7591, -24.9885, -24.9885
277.68, (609.352,166.368), 279.6615, 100.0, 279.66152231483386, -82.32, -82.32, -0.4955, 0.0668, 3.341, -24.7757, -24.7757
277.68, (609.593,164.584), 279.6615, 100.0, 279.66150508002943, -82.32, -82.32, -0.4955, 0.0668, 3.341, -24.7757, -24.7757
277.68, (609.86,162.602), 279.6615, 100.0, 279.66148579677355, -82.32, -82.32, -0.4955, 0.0668, 3.341, -24.7757, -24.7757
280.44, (610.145,160.623), 282.4215, 100.0, 282.4214712869333, -80.58, -80.58, -0.4917, 0.0906, 4.5301, -24.5861, -24.5861
288, (610.625,158.889), 289.9815, 100.0, 289.9814538194603, -72, -72, -0.4755, 0.1545, 7.7254, -23.7764, -23.7764
288, (611.243,156.987), 289.9814, 100.0, 289.9814417388054, -72, -72, -0.4755, 0.1545, 7.7254, -23.7764, -23.7764
288, (611.799,155.275), 289.9814, 100.0, 289.98142765350025, -72, -72, -0.4755, 0.1545, 7.7254, -23.7764, -23.7764
288, (612.417,153.373), 289.9814, 100.0, 289.981409362791, -72, -72, -0.4755, 0.1545, 7.7254, -23.7764, -23.7764
280.2, (612.941,151.445), 282.1814, 100.0, 282.8413951398215, -78.12, -78.12, -0.491, 0.0942, 4.7102, -24.5523, -24.5523
271.26, (613.135,149.657), 273.2414, 100.0, 274.20137865044154, -86.7, -86.7, -0.4996, 0.0194, 0.9684, -24.9812, -24.9812
273.36, (613.129,147.658), 275.3414, 100.0, 274.6213631993658, -88.38, -88.38, -0.4995, 0.023, 1.1515, -24.9735, -24.9735
277.68, (613.364,145.672), 279.6613, 100.0, 279.6613471370336, -82.32, -82.32, -0.4955, 0.0668, 3.341, -24.7757, -24.7757
287.58, (613.756,143.917), 289.5613, 100.0, 288.78132433127087, -74.28, -74.28, -0.4787, 0.1445, 7.2258, -23.933, -23.933
279.54, (614.251,141.982), 281.5213, 100.0, 281.881301734432, -79.14, -79.14, -0.4926, 0.086, 4.2982, -24.6277, -24.6277
270.3, (614.411,140.191), 272.2813, 100.0, 273.0612880792103, -87.96, -87.96, -0.4999, 0.0094, 0.4712, -24.9956, -24.9956
267.78, (614.344,138.192), 269.7613, 100.0, 269.76127861171864, -92.22, -92.22, -0.4996, -0.0194, -0.9684, -24.9812, -24.9812
267.78, (614.266,136.194), 269.7613, 100.0, 269.7612612971394, -92.22, -92.22, -0.4996, -0.0194, -0.9684, -24.9812, -24.9812
267.78, (614.197,134.395), 269.7612, 100.0, 269.76124223838724, -92.22, -92.22, -0.4996, -0.0194, -0.9684, -24.9812, -24.9812
257.64, (613.946,132.414), 259.6212, 100.0, 259.98122400986887, -101.04, -101.04, -0.4891, -0.104, -5.1978, -24.4537, -24.4537
259.74, (613.529,130.458), 261.7212, 100.0, 261.7212074929973, -101.34, -101.34, -0.492, -0.0891, -4.4529, -24.6002, -24.6002
267.78, (613.367,128.667), 269.7612, 100.0, 269.7611886470953, -92.22, -92.22, -0.4996, -0.0194, -0.9684, -24.9812, -24.9812
267.78, (613.29,126.668), 269.7612, 100.0, 269.7611707885215, -92.22, -92.22, -0.4996, -0.0194, -0.9684, -24.9812, -24.9812
271.5, (613.242,124.669), 273.4812, 100.0, 273.4811517553904, -89.52, -89.52, -0.4998, 0.0131, 0.6544, -24.9914, -24.9914
278.04, (613.433,122.881), 280.0211, 100.0, 280.02113374941683, -81.96, -81.96, -0.4951, 0.0699, 3.4966, -24.7543, -24.7543
278.04, (613.713,120.9), 280.0211, 100.0, 280.02111483478245, -81.96, -81.96, -0.4951, 0.0699, 3.4966, -24.7543, -24.7543
278.04, (613.993,118.92), 280.0211, 100.0, 280.02109478991, -81.96, -81.96, -0.4951, 0.0699, 3.4966, -24.7543, -24.7543
277.38, (614.244,117.138), 279.3611, 100.0, 280.0210729087239, -81.96, -81.96, -0.4951, 0.0699, 3.4966, -24.7543, -24.7543
267.9, (614.329,115.142), 269.8811, 100.0, 269.8810575717363, -91.38, -91.38, -0.4997, -0.0183, -0.9161, -24.9832, -24.9832
267.9, (614.263,113.344), 269.881, 100.0, 269.8810385747007, -92.1, -92.1, -0.4997, -0.0183, -0.9161, -24.9832, -24.9832
275.82, (614.289,111.346), 277.801, 100.0, 277.08102092375884, -85.98, -85.98, -0.498, 0.0444, 2.2224, -24.901, -24.901
274.8, (614.54,109.362), 276.781, 100.0, 277.1410042263119, -83.82, -83.82, -0.498, 0.045, 2.2484, -24.8987, -24.8987
267.9, (614.541,107.363), 269.881, 100.0, 269.8809873943396, -92.1, -92.1, -0.4997, -0.0183, -0.9161, -24.9832, -24.9832
267.9, (614.475,105.564), 269.881, 100.0, 269.88096197247563, -92.1, -92.1, -0.4997, -0.0183, -0.9161, -24.9832, -24.9832
258.66, (614.282,103.777), 260.641, 100.0, 261.72095233834887, -99.54, -99.54, -0.492, -0.0891, -4.4529, -24.6002, -24.6002
251.64, (613.798,101.838), 253.6209, 100.0, 253.98093427189096, -106.92, -106.92, -0.4755, -0.1545, -7.7254, -23.7764, -23.7764
247.38, (613.058,99.98), 249.3609, 100.0, 249.36091968779402, -112.62, -112.62, -0.4615, -0.1923, -9.6154, -23.0769, -23.0769
253.26, (612.415,98.3), 255.2409, 100.0, 254.52090798823525, -108.54, -108.54, -0.477, -0.15, -7.501, -23.8482, -23.8482
257.46, (611.95,96.356), 259.4409, 100.0, 259.4408927078483, -102.54, -102.54, -0.4881, -0.1086, -5.428, -24.4036, -24.4036
255, (611.552,94.6), 256.9809, 100.0, 257.6408760537869, -102.96, -102.96, -0.4844, -0.1238, -6.1919, -24.2211, -24.2211
247.38, (610.876,92.72), 249.3609, 100.0, 249.3608547263643, -112.62, -112.62, -0.4615, -0.1923, -9.6154, -23.0769, -23.0769
247.38, (610.107,90.874), 249.3608, 100.0, 249.3608383959445, -112.62, -112.62, -0.4615, -0.1923, -9.6154, -23.0769, -23.0769
242.34, (609.47,89.407), 244.3208, 100.0, 244.9808250222218, -114.6, -114.6, -0.4455, -0.227, -11.3498, -22.2752, -22.2752
241.38, (608.451,87.687), 243.3608, 100.0, 243.0008039645232, -120.18, -120.18, -0.4374, -0.2423, -12.1126, -21.8697, -21.8697
247.26, (607.711,86.047), 249.2408, 100.0, 249.24079514564983, -112.74, -112.74, -0.4611, -0.1933, -9.6638, -23.0567, -23.0567
255.24, (607.036,84.167), 257.2208, 100.0, 257.2207808513584, -106.38, -106.38, -0.4835, -0.1274, -6.3693, -24.175, -24.175
258.12, (606.638,82.411), 260.1008, 100.0, 259.32076203784595, -102.66, -102.66, -0.4878, -0.1096, -5.4791, -24.3922, -24.3922
267.6, (606.392,80.429), 269.5807, 100.0, 269.58074752303054, -93.42, -93.42, -0.4996, -0.0209, -1.0469, -24.9781, -24.9781
257.52, (606.122,78.45), 259.5007, 100.0, 259.5007316392672, -101.4, -101.4, -0.4882, -0.108, -5.4025, -24.4093, -24.4093
267, (605.865,76.671), 268.9807, 100.0, 268.0207134741421, -94.98, -94.98, -0.4988, -0.0345, -1.7265, -24.9403, -24.9403
267.66, (605.789,74.872), 269.6407, 100.0, 269.6406969784933, -92.34, -92.34, -0.4996, -0.0204, -1.0207, -24.9792, -24.9792
267.66, (605.707,72.874), 269.6407, 100.0, 269.64067836543336, -92.34, -92.34, -0.4996, -0.0204, -1.0207, -24.9792, -24.9792
267.66, (605.625,70.876), 269.6407, 100.0, 269.64065704625887, -92.34, -92.34, -0.4996, -0.0204, -1.0207, -24.9792, -24.9792
273.42, (605.605,68.877), 275.4006, 100.0, 275.0406397169356, -87.66, -87.66, -0.4993, 0.0267, 1.3345, -24.9644, -24.9644
277.68, (605.819,67.09), 279.6606, 100.0, 279.66062320471985, -82.32, -82.32, -0.4955, 0.0668, 3.341, -24.7757, -24.7757
277.68, (606.086,65.108), 279.6606, 100.0, 279.6606022081093, -82.32, -82.32, -0.4955, 0.0668, 3.341, -24.7757, -24.7757
277.68, (606.354,63.126), 279.6606, 100.0, 279.6605890363542, -82.32, -82.32, -0.4955, 0.0668, 3.341, -24.7757, -24.7757
281.64, (606.651,61.149), 283.6206, 100.0, 283.62057410373126, -79.68, -79.68, -0.4897, 0.1009, 5.044, -24.4859, -24.4859
284.94, (607.138,59.417), 286.9206, 100.0, 287.5805551651524, -73.38, -73.38, -0.4816, 0.1345, 6.723, -24.0791, -24.0791
277.86, (607.497,57.451), 279.8405, 100.0, 279.84054044460316, -82.14, -82.14, -0.4953, 0.0684, 3.4188, -24.7651, -24.7651
277.86, (607.77,55.47), 279.8405, 100.0, 279.84052097362564, -82.14, -82.14, -0.4953, 0.0684, 3.4188, -24.7651, -24.7651
282.3, (608.042,53.691), 284.2805, 100.0, 283.20050407101445, -79.74, -79.74, -0.4904, 0.0973, 4.8644, -24.5222, -24.5222
288.24, (608.598,51.771), 290.2205, 100.0, 289.8604913728342, -72.12, -72.12, -0.4759, 0.1535, 7.6756, -23.7925, -23.7925
298.2, (609.388,49.937), 300.1805, 100.0, 300.18047574604, -62.88, -62.88, -0.4407, 0.2363, 11.8138, -22.0326, -22.0326
298.2, (610.333,48.174), 300.1805, 100.0, 300.1804582490347, -61.8, -61.8, -0.4407, 0.2363, 11.8138, -22.0326, -22.0326
305.22, (611.245,46.624), 307.2004, 100.0, 306.1804442624605, -56.82, -56.82, -0.4135, 0.281, 14.0521, -20.677, -20.677
312.78, (612.492,45.061), 314.7604, 100.0, 314.1004278015022, -48.96, -48.96, -0.3709, 0.3353, 16.7671, -18.5435, -18.5435
314.82, (613.933,43.676), 316.8004, 100.0, 317.1604073202871, -43.8, -43.8, -0.3524, 0.3547, 17.7331, -17.622, -17.622
308.46, (615.224,42.15), 310.4404, 100.0, 310.440389725052, -51.54, -51.54, -0.3915, 0.311, 15.5492, -19.5761, -19.5761
311.28, (616.352,40.747), 313.2604, 100.0, 312.54037302691955, -50.58, -50.58, -0.3799, 0.3251, 16.2561, -18.9931, -18.9931
316.56, (617.781,39.35), 318.5404, 100.0, 318.8403580538049, -42.12, -42.12, -0.3419, 0.3648, 18.2421, -17.0946, -17.0946
307.02, (619.099,37.85), 309.0003, 100.0, 309.00034629769965, -51.6, -51.6, -0.3992, 0.301, 15.0523, -19.9606, -19.9606
298.08, (620.147,36.149), 300.0603, 100.0, 300.0603343000146, -61.92, -61.92, -0.4411, 0.2354, 11.7676, -22.0573, -22.0573
298.08, (620.994,34.561), 300.0603, 100.0, 300.06031869648064, -61.92, -61.92, -0.4411, 0.2354, 11.7676, -22.0573, -22.0573
304.38, (621.993,32.829), 306.3603, 100.0, 305.7003016001482, -57.3, -57.3, -0.4159, 0.2776, 13.8784, -20.794, -20.794
302.34, (623.164,31.209), 304.3203, 100.0, 305.04029003666886, -55.92, -55.92, -0.419, 0.2728, 13.6379, -20.9525, -20.9525
293.16, (624.089,29.439), 295.1403, 100.0, 295.14027420456324, -65.76, -65.76, -0.4597, 0.1967, 9.8325, -22.9853, -22.9853
292.08, (624.776,27.561), 294.0603, 100.0, 294.0602597598264, -68.94, -68.94, -0.4633, 0.188, 9.3975, -23.1665, -23.1665
294.12, (625.558,25.94), 296.1002, 100.0, 296.7602497236655, -64.2, -64.2, -0.454, 0.2096, 10.4784, -22.6981, -22.6981
284.64, (626.217,24.055), 286.6202, 100.0, 286.9202336897071, -74.04, -74.04, -0.4831, 0.1289, 6.4452, -24.1549, -24.1549
275.28, (626.549,22.085), 277.2602, 100.0, 277.26021575478603, -83.76, -83.76, -0.4979, 0.046, 2.3006, -24.8939, -24.8939
267.48, (626.551,20.086), 269.4602, 100.0, 269.4602016495949, -92.52, -92.52, -0.4995, -0.022, -1.0992, -24.9758, -24.9758
270.9, (626.486,18.288), 272.8802, 100.0, 271.8601869609562, -91.2, -91.2, -0.5, -0.001, -0.0524, -24.9999, -24.9999
274.74, (626.65,16.296), 276.7202, 100.0, 277.44017255695985, -83.52, -83.52, -0.4977, 0.0476, 2.3788, -24.8866, -24.8866
267.42, (626.653,14.298), 269.4002, 100.0, 269.4001554613923, -92.58, -92.58, -0.4995, -0.0225, -1.1254, -24.9747, -24.9747
267.42, (626.572,12.5), 269.4001, 100.0, 269.4001409598852, -92.58, -92.58, -0.4995, -0.0225, -1.1254, -24.9747, -24.9747
267.42, (626.482,10.502), 269.4001, 100.0, 269.40012361190645, -92.58, -92.58, -0.4995, -0.0225, -1.1254, -24.9747, -24.9747
270.66, (626.415,8.503), 272.6401, 100.0, 272.6401116421323, -90.42, -90.42, -0.5, 0.0058, 0.288, -24.9983, -24.9983
274.68, (626.572,6.711), 276.6601, 100.0, 277.3800937993311, -83.58, -83.58, -0.4978, 0.0471, 2.3527, -24.889, -24.889
267.24, (626.566,4.713), 269.2201, 100.0, 269.2200764553545, -92.76, -92.76, -0.4994, -0.0241, -1.2038, -24.971, -24.971
267.24, (626.48,2.915), 269.2201, 100.0, 269.2200639774162, -92.76, -92.76, -0.4994, -0.0241, -1.2038, -24.971, -24.971
267.24, (626.383,0.917), 269.22, 100.0, 269.22004557712796, -92.76, -92.76, -0.4994, -0.0241, -1.2038, -24.971, -24.971
267.24, (626.287,-1.08), 269.22, 100.0, 269.2200286631006, -92.76, -92.76, -0.4994, -0.0241, -1.2038, -24.971, -24.971
275.64, (626.321,-3.078), 277.62, 100.0, 277.620009144621, -85.38, -85.38, -0.4976, 0.0491, 2.4569, -24.879, -24.879
277.26, (626.547,-4.863), 279.24, 100.0, 279.23999503087026, -82.74, -82.74, -0.496, 0.0632, 3.1593, -24.7996, -24.7996
277.26, (626.799,-6.847), 279.24, 100.0, 279.23998026438034, -82.74, -82.74, -0.496, 0.0632, 3.1593, -24.7996, -24.7996
277.26, (627.027,-8.633), 279.24, 100.0, 279.23996622204186, -82.74, -82.74, -0.496, 0.0632, 3.1593, -24.7996, -24.7996
272.28, (627.242,-10.621), 274.2599, 100.0, 274.97994568450383, -86.1, -86.1, -0.4993, 0.0262, 1.3084, -24.9657, -24.9657
262.8, (627.16,-12.617), 264.7799, 100.0, 265.49992984462114, -95.52, -95.52, -0.4968, -0.0564, -2.8214, -24.8403, -24.8403
256.8, (626.764,-14.576), 258.7799, 100.0, 258.7799138383137, -103.2, -103.2, -0.4868, -0.1142, -5.7088, -24.3395, -24.3395
256.8, (626.308,-16.523), 258.7799, 100.0, 258.7798950233767, -103.2, -103.2, -0.4868, -0.1142, -5.7088, -24.3395, -24.3395
256.8, (625.897,-18.276), 258.7799, 100.0, 258.7798820849157, -103.2, -103.2, -0.4868, -0.1142, -5.7088, -24.3395, -24.3395
256.8, (625.44,-20.223), 258.7799, 100.0, 258.77987214055713, -103.2, -103.2, -0.4868, -0.1142, -5.7088, -24.3395, -24.3395
256.8, (624.983,-22.17), 258.7799, 100.0, 258.779853683987, -103.2, -103.2, -0.4868, -0.1142, -5.7088, -24.3395, -24.3395
256.8, (624.527,-24.117), 258.7798, 100.0, 258.779839662982, -103.2, -103.2, -0.4868, -0.1142, -5.7088, -24.3395, -24.3395
256.8, (624.116,-25.87), 258.7798, 100.0, 258.77982014247175, -103.2, -103.2, -0.4868, -0.1142, -5.7088, -24.3395, -24.3395
246.66, (623.492,-27.767), 248.6398, 100.0, 248.939802028694, -111.96, -111.96, -0.4601, -0.1957, -9.7843, -23.0058, -23.0058
255.18, (622.826,-29.65), 257.1598, 100.0, 257.15978470394305, -105.96, -105.96, -0.4834, -0.1279, -6.3946, -24.1684, -24.1684
256.86, (622.414,-31.402), 258.8398, 100.0, 258.83976312394645, -103.14, -103.14, -0.4869, -0.1137, -5.6833, -24.3454, -24.3454
264.12, (622.056,-33.368), 266.0997, 100.0, 266.0997473985653, -96.9, -96.9, -0.4974, -0.0512, -2.5611, -24.8685, -24.8685
260.58, (621.867,-35.357), 262.5597, 100.0, 262.9197269571801, -98.4, -98.4, -0.4938, -0.0787, -3.9367, -24.6881, -24.6881
251.28, (621.429,-37.102), 253.2597, 100.0, 253.91971052410275, -107.04, -107.04, -0.4754, -0.155, -7.7503, -23.7683, -23.7683
241.92, (620.64,-38.937), 243.8997, 100.0, 244.55969397345345, -116.76, -116.76, -0.4438, -0.2303, -11.5127, -22.1914, -22.1914
232.2, (619.549,-40.61), 234.1797, 100.0, 234.4796772576128, -126.48, -126.48, -0.3967, -0.3044, -15.219, -19.8338, -19.8338
230.76, (618.367,-41.967), 232.7397, 100.0, 231.71966729258833, -131.22, -131.22, -0.3816, -0.3231, -16.1564, -19.078, -19.078
233.46, (617.198,-43.589), 235.4397, 100.0, 236.15965190381377, -124.92, -124.92, -0.4054, -0.2926, -14.631, -20.2715, -20.2715
223.98, (615.879,-45.089), 225.9596, 100.0, 226.25963046707386, -134.52, -134.52, -0.3491, -0.358, -17.8984, -17.4541, -17.4541
214.44, (614.322,-46.341), 216.4196, 100.0, 216.4196149678507, -144.48, -144.48, -0.2828, -0.4124, -20.618, -14.1386, -14.1386
204.9, (612.756,-47.223), 206.8796, 100.0, 207.8996023766124, -153.72, -153.72, -0.2186, -0.4497, -22.4851, -10.9279, -10.9279
195.48, (610.881,-47.912), 197.4596, 100.0, 197.81958537632568, -163.5, -163.5, -0.1365, -0.481, -24.0507, -6.8238, -6.8238
185.76, (608.916,-48.271), 187.7396, 100.0, 187.73956899664174, -173.28, -173.28, -0.0502, -0.4975, -24.8738, -2.509, -2.509
175.74, (606.919,-48.297), 177.7196, 100.0, 177.7195554739926, 177.18, 177.18, 0.0371, -0.4986, -24.9309, 1.8571, 1.8571
166.32, (605.141,-48.028), 168.2995, 100.0, 169.31953896458398, 168.36, 168.36, 0.1096, -0.4878, -24.3922, 5.4791, 5.4791
156.84, (603.241,-47.412), 158.8195, 100.0, 159.47951989504895, 158.46, 158.46, 0.1913, -0.4619, -23.097, 9.5671, 9.5671
147.24, (601.474,-46.479), 149.2195, 100.0, 149.57951148066752, 148.56, 148.56, 0.2679, -0.4222, -21.1082, 13.3957, 13.3957
137.82, (599.887,-45.266), 139.7995, 100.0, 140.15949950612267, 139.26, 139.26, 0.3334, -0.3726, -18.6311, 16.6698, 16.6698
128.34, (598.652,-43.959), 130.3195, 100.0, 131.27948374223212, 130.26, 130.26, 0.3869, -0.3167, -15.8345, 19.346, 19.346
118.98, (597.538,-42.301), 120.9595, 100.0, 121.31946471813173, 120.48, 120.48, 0.4359, -0.245, -12.2498, 21.7932, 21.7932
109.32, (596.723,-40.477), 111.2994, 100.0, 111.7194494382484, 110.76, 110.76, 0.4706, -0.1689, -8.4438, 23.5309, 23.5309
99.72, (596.265,-38.738), 101.6994, 100.0, 102.7794322034156, 102.12, 102.12, 0.4911, -0.0937, -4.6845, 24.5572, 24.5572
99.24, (596.017,-36.754), 101.2194, 100.0, 100.4394146551094, 97.44, 97.44, 0.4946, -0.0736, -3.678, 24.728, 24.728
101.7, (595.578,-34.804), 103.6794, 100.0, 104.03940073047117, 103.14, 103.14, 0.489, -0.1045, -5.2234, 24.4482, 24.4482
91.86, (595.349,-32.819), 93.8394, 100.0, 94.13938629584273, 93.24, 93.24, 0.4996, -0.0188, -0.9423, 24.9822, 24.9822
82.74, (595.433,-31.023), 84.7194, 100.0, 85.73937268424355, 84.48, 84.48, 0.497, 0.0543, 2.7173, 24.8519, 24.8519
73.02, (595.855,-29.07), 74.9994, 100.0, 75.65935784829881, 74.7, 74.7, 0.4799, 0.1405, 7.025, 23.9927, 23.9927
63.78, (596.6,-27.217), 65.7593, 100.0, 66.1193425325748, 64.44, 64.44, 0.4499, 0.2181, 10.9043, 22.4966, 22.4966
54.24, (597.649,-25.517), 56.2193, 100.0, 56.219330875028874, 54.6, 54.6, 0.4057, 0.2922, 14.6098, 20.2868, 20.2868
58.38, (598.682,-24.044), 60.3593, 100.0, 59.33931395040601, 56.34, 56.34, 0.421, 0.2697, 13.484, 21.0519, 21.0519
64.62, (599.606,-22.272), 66.5993, 100.0, 66.59929615682071, 64.62, 64.62, 0.4517, 0.2143, 10.7155, 22.5871, 22.5871
64.62, (600.463,-20.465), 66.5993, 100.0, 66.59927754420424, 64.62, 64.62, 0.4517, 0.2143, 10.7155, 22.5871, 22.5871
62.28, (601.333,-18.664), 64.2593, 100.0, 64.25925781322526, 63.3, 63.3, 0.4426, 0.2326, 11.6288, 22.1308, 22.1308
54.78, (602.301,-17.149), 56.7592, 100.0, 56.39924384226274, 54.42, 54.42, 0.4067, 0.2909, 14.546, 20.3326, 20.3326
